[{"slide":"test","cond":"dd","leftPic":"dd20b","rightPic":"dd20a","trialNum":1,"key":"h","correct":1,"rt":640},{"slide":"test","cond":"ap","leftPic":"ap32b","rightPic":"ap32a","trialNum":2,"key":"a","correct":1,"rt":557},{"slide":"test","cond":"ss","leftPic":"ss20b","rightPic":"ss20a","trialNum":3,"key":"h","correct":1,"rt":519},{"slide":"test","cond":"dd","leftPic":"dd19b","rightPic":"dd19a","trialNum":4,"key":"h","correct":1,"rt":501},{"slide":"test","cond":"ap","leftPic":"ap31b","rightPic":"ap31a","trialNum":5,"key":"a","correct":1,"rt":526},{"slide":"test","cond":"ap","leftPic":"ap30b","rightPic":"ap30a","trialNum":6,"key":"a","correct":1,"rt":710},{"slide":"test","cond":"dd","leftPic":"dd18b","rightPic":"dd18a","trialNum":7,"key":"h","correct":1,"rt":499},{"slide":"test","cond":"ss","leftPic":"ss19b","rightPic":"ss19a","trialNum":8,"key":"h","correct":1,"rt":383},{"slide":"test","cond":"dd","leftPic":"dd17b","rightPic":"dd17a","trialNum":9,"key":"h","correct":1,"rt":412},{"slide":"test","cond":"dd","leftPic":"dd16b","rightPic":"dd16a","trialNum":10,"key":"h","correct":1,"rt":559},{"slide":"test","cond":"ss","leftPic":"ss18b","rightPic":"ss18a","trialNum":11,"key":"h","correct":1,"rt":383},{"slide":"test","cond":"ss","leftPic":"ss17b","rightPic":"ss17a","trialNum":12,"key":"h","correct":1,"rt":394},{"slide":"test","cond":"dd","leftPic":"dd15b","rightPic":"dd15a","trialNum":13,"key":"h","correct":1,"rt":427},{"slide":"test","cond":"ss","leftPic":"ss16b","rightPic":"ss16a","trialNum":14,"key":"h","correct":1,"rt":540},{"slide":"test","cond":"ap","leftPic":"ap29b","rightPic":"ap29a","trialNum":15,"key":"a","correct":1,"rt":906},{"slide":"test","cond":"ds","leftPic":"ds20b","rightPic":"ds20a","trialNum":16,"key":"h","correct":1,"rt":664},{"slide":"test","cond":"ap","leftPic":"ap28b","rightPic":"ap28a","trialNum":17,"key":"a","correct":1,"rt":805},{"slide":"test","cond":"ds","leftPic":"ds19b","rightPic":"ds19a","trialNum":18,"key":"h","correct":1,"rt":501},{"slide":"test","cond":"ap","leftPic":"ap27b","rightPic":"ap27a","trialNum":19,"key":"a","correct":1,"rt":529},{"slide":"test","cond":"ds","leftPic":"ds18b","rightPic":"ds18a","trialNum":20,"key":"h","correct":1,"rt":492},{"slide":"test","cond":"dd","leftPic":"dd14b","rightPic":"dd14a","trialNum":21,"key":"h","correct":1,"rt":417},{"slide":"test","cond":"ds","leftPic":"ds17b","rightPic":"ds17a","trialNum":22,"key":"h","correct":1,"rt":386},{"slide":"test","cond":"ss","leftPic":"ss15b","rightPic":"ss15a","trialNum":23,"key":"h","correct":1,"rt":393},{"slide":"test","cond":"ap","leftPic":"ap26b","rightPic":"ap26a","trialNum":24,"key":"a","correct":1,"rt":437},{"slide":"test","cond":"ap","leftPic":"ap25b","rightPic":"ap25a","trialNum":25,"key":"a","correct":1,"rt":529},{"slide":"test","cond":"ap","leftPic":"ap24b","rightPic":"ap24a","trialNum":26,"key":"a","correct":1,"rt":547},{"slide":"test","cond":"dd","leftPic":"dd13b","rightPic":"dd13a","trialNum":27,"key":"h","correct":1,"rt":521},{"slide":"test","cond":"ap","leftPic":"ap23b","rightPic":"ap23a","trialNum":28,"key":"a","correct":1,"rt":565},{"slide":"test","cond":"ds","leftPic":"ds16b","rightPic":"ds16a","trialNum":29,"key":"h","correct":1,"rt":436},{"slide":"test","cond":"ds","leftPic":"ds15b","rightPic":"ds15a","trialNum":30,"key":"h","correct":1,"rt":498},{"slide":"test","cond":"dd","leftPic":"dd12b","rightPic":"dd12a","trialNum":31,"key":"h","correct":1,"rt":483},{"slide":"test","cond":"ap","leftPic":"ap22b","rightPic":"ap22a","trialNum":32,"key":"a","correct":1,"rt":526},{"slide":"test","cond":"ds","leftPic":"ds14b","rightPic":"ds14a","trialNum":33,"key":"h","correct":1,"rt":482},{"slide":"test","cond":"ap","leftPic":"ap21b","rightPic":"ap21a","trialNum":34,"key":"a","correct":1,"rt":494},{"slide":"test","cond":"ds","leftPic":"ds13b","rightPic":"ds13a","trialNum":35,"key":"h","correct":1,"rt":503},{"slide":"test","cond":"ss","leftPic":"ss14b","rightPic":"ss14a","trialNum":36,"key":"h","correct":1,"rt":420},{"slide":"test","cond":"ap","leftPic":"ap20b","rightPic":"ap20a","trialNum":37,"key":"a","correct":1,"rt":555},{"slide":"test","cond":"ds","leftPic":"ds12b","rightPic":"ds12a","trialNum":38,"key":"h","correct":1,"rt":491},{"slide":"test","cond":"ds","leftPic":"ds11b","rightPic":"ds11a","trialNum":39,"key":"h","correct":1,"rt":506},{"slide":"test","cond":"ap","leftPic":"ap19b","rightPic":"ap19a","trialNum":40,"key":"a","correct":1,"rt":567},{"slide":"test","cond":"dd","leftPic":"dd11b","rightPic":"dd11a","trialNum":41,"key":"h","correct":1,"rt":601},{"slide":"test","cond":"ap","leftPic":"ap18b","rightPic":"ap18a","trialNum":42,"key":"a","correct":1,"rt":1017},{"slide":"test","cond":"ap","leftPic":"ap17b","rightPic":"ap17a","trialNum":43,"key":"h","correct":0,"rt":547},{"slide":"test","cond":"ap","leftPic":"ap16b","rightPic":"ap16a","trialNum":44,"key":"a","correct":1,"rt":742},{"slide":"test","cond":"dd","leftPic":"dd10b","rightPic":"dd10a","trialNum":45,"key":"h","correct":1,"rt":552},{"slide":"test","cond":"ap","leftPic":"ap15b","rightPic":"ap15a","trialNum":46,"key":"a","correct":1,"rt":781},{"slide":"test","cond":"ss","leftPic":"ss13b","rightPic":"ss13a","trialNum":47,"key":"h","correct":1,"rt":542},{"slide":"test","cond":"ap","leftPic":"ap14b","rightPic":"ap14a","trialNum":48,"key":"a","correct":1,"rt":552},{"slide":"test","cond":"ap","leftPic":"ap13b","rightPic":"ap13a","trialNum":49,"key":"a","correct":1,"rt":648},{"slide":"test","cond":"ap","leftPic":"ap12b","rightPic":"ap12a","trialNum":50,"key":"a","correct":1,"rt":630},{"slide":"test","cond":"ds","leftPic":"ds10b","rightPic":"ds10a","trialNum":51,"key":"h","correct":1,"rt":609},{"slide":"test","cond":"dd","leftPic":"dd9b","rightPic":"dd9a","trialNum":52,"key":"h","correct":1,"rt":532},{"slide":"test","cond":"ap","leftPic":"ap11b","rightPic":"ap11a","trialNum":53,"key":"a","correct":1,"rt":543},{"slide":"test","cond":"ss","leftPic":"ss12b","rightPic":"ss12a","trialNum":54,"key":"h","correct":1,"rt":596},{"slide":"test","cond":"ss","leftPic":"ss11b","rightPic":"ss11a","trialNum":55,"key":"h","correct":1,"rt":608},{"slide":"test","cond":"ss","leftPic":"ss10b","rightPic":"ss10a","trialNum":56,"key":"h","correct":1,"rt":390},{"slide":"test","cond":"ds","leftPic":"ds9b","rightPic":"ds9a","trialNum":57,"key":"h","correct":1,"rt":481},{"slide":"test","cond":"ds","leftPic":"ds8b","rightPic":"ds8a","trialNum":58,"key":"h","correct":1,"rt":366},{"slide":"test","cond":"dd","leftPic":"dd8b","rightPic":"dd8a","trialNum":59,"key":"h","correct":1,"rt":414},{"slide":"test","cond":"ap","leftPic":"ap10b","rightPic":"ap10a","trialNum":60,"key":"a","correct":1,"rt":651},{"slide":"test","cond":"ap","leftPic":"ap9b","rightPic":"ap9a","trialNum":61,"key":"a","correct":1,"rt":666},{"slide":"test","cond":"ap","leftPic":"ap8b","rightPic":"ap8a","trialNum":62,"key":"a","correct":1,"rt":635},{"slide":"test","cond":"ap","leftPic":"ap7b","rightPic":"ap7a","trialNum":63,"key":"a","correct":1,"rt":486},{"slide":"test","cond":"ap","leftPic":"ap6b","rightPic":"ap6a","trialNum":64,"key":"a","correct":1,"rt":487},{"slide":"test","cond":"ap","leftPic":"ap5b","rightPic":"ap5a","trialNum":65,"key":"a","correct":1,"rt":428},{"slide":"test","cond":"ds","leftPic":"ds7b","rightPic":"ds7a","trialNum":66,"key":"h","correct":1,"rt":552},{"slide":"test","cond":"ds","leftPic":"ds6b","rightPic":"ds6a","trialNum":67,"key":"h","correct":1,"rt":446},{"slide":"test","cond":"dd","leftPic":"dd7b","rightPic":"dd7a","trialNum":68,"key":"h","correct":1,"rt":417},{"slide":"test","cond":"ss","leftPic":"ss9b","rightPic":"ss9a","trialNum":69,"key":"h","correct":1,"rt":436},{"slide":"test","cond":"ds","leftPic":"ds5b","rightPic":"ds5a","trialNum":70,"key":"h","correct":1,"rt":450},{"slide":"test","cond":"ss","leftPic":"ss8b","rightPic":"ss8a","trialNum":71,"key":"h","correct":1,"rt":436},{"slide":"test","cond":"ss","leftPic":"ss7b","rightPic":"ss7a","trialNum":72,"key":"h","correct":1,"rt":427},{"slide":"test","cond":"dd","leftPic":"dd6b","rightPic":"dd6a","trialNum":73,"key":"h","correct":1,"rt":406},{"slide":"test","cond":"ss","leftPic":"ss6b","rightPic":"ss6a","trialNum":74,"key":"h","correct":1,"rt":431},{"slide":"test","cond":"ss","leftPic":"ss5b","rightPic":"ss5a","trialNum":75,"key":"h","correct":1,"rt":382},{"slide":"test","cond":"dd","leftPic":"dd5b","rightPic":"dd5a","trialNum":76,"key":"h","correct":1,"rt":367},{"slide":"test","cond":"ap","leftPic":"ap4b","rightPic":"ap4a","trialNum":77,"key":"a","correct":1,"rt":514},{"slide":"test","cond":"ds","leftPic":"ds4b","rightPic":"ds4a","trialNum":78,"key":"h","correct":1,"rt":546},{"slide":"test","cond":"ap","leftPic":"ap3b","rightPic":"ap3a","trialNum":79,"key":"a","correct":1,"rt":570},{"slide":"test","cond":"dd","leftPic":"dd4b","rightPic":"dd4a","trialNum":80,"key":"h","correct":1,"rt":557},{"slide":"test","cond":"ds","leftPic":"ds3b","rightPic":"ds3a","trialNum":81,"key":"h","correct":1,"rt":438},{"slide":"test","cond":"ss","leftPic":"ss4b","rightPic":"ss4a","trialNum":82,"key":"h","correct":1,"rt":409},{"slide":"test","cond":"ap","leftPic":"ap2b","rightPic":"ap2a","trialNum":83,"key":"a","correct":1,"rt":748},{"slide":"test","cond":"dd","leftPic":"dd3b","rightPic":"dd3a","trialNum":84,"key":"h","correct":1,"rt":480},{"slide":"test","cond":"ss","leftPic":"ss3b","rightPic":"ss3a","trialNum":85,"key":"h","correct":1,"rt":470},{"slide":"test","cond":"ap","leftPic":"ap1b","rightPic":"ap1a","trialNum":86,"key":"a","correct":1,"rt":518},{"slide":"test","cond":"ds","leftPic":"ds2b","rightPic":"ds2a","trialNum":87,"key":"h","correct":1,"rt":590},{"slide":"test","cond":"ss","leftPic":"ss2b","rightPic":"ss2a","trialNum":88,"key":"h","correct":1,"rt":471},{"slide":"test","cond":"dd","leftPic":"dd2b","rightPic":"dd2a","trialNum":89,"key":"h","correct":1,"rt":404},{"slide":"test","cond":"ds","leftPic":"ds1b","rightPic":"ds1a","trialNum":90,"key":"h","correct":1,"rt":481},{"slide":"test","cond":"dd","leftPic":"dd1b","rightPic":"dd1a","trialNum":91,"key":"h","correct":1,"rt":411},{"slide":"test","cond":"ss","leftPic":"ss1b","rightPic":"ss1a","trialNum":92,"key":"h","correct":1,"rt":355}]