[{"slide":"test","cond":"ss","leftPic":"ss1a","rightPic":"ss1b","trialNum":1,"key":"h","correct":1,"rt":2868},{"slide":"test","cond":"ss","leftPic":"ss2a","rightPic":"ss2b","trialNum":2,"key":"h","correct":1,"rt":980},{"slide":"test","cond":"dd","leftPic":"dd1a","rightPic":"dd1b","trialNum":3,"key":"h","correct":1,"rt":592},{"slide":"test","cond":"ap","leftPic":"ap1a","rightPic":"ap1b","trialNum":4,"key":"a","correct":1,"rt":1514},{"slide":"test","cond":"ss","leftPic":"ss3a","rightPic":"ss3b","trialNum":5,"key":"h","correct":1,"rt":2241},{"slide":"test","cond":"dd","leftPic":"dd2a","rightPic":"dd2b","trialNum":6,"key":"h","correct":1,"rt":748},{"slide":"test","cond":"ss","leftPic":"ss4a","rightPic":"ss4b","trialNum":7,"key":"h","correct":1,"rt":565},{"slide":"test","cond":"dd","leftPic":"dd3a","rightPic":"dd3b","trialNum":8,"key":"h","correct":1,"rt":577},{"slide":"test","cond":"ap","leftPic":"ap2a","rightPic":"ap2b","trialNum":9,"key":"a","correct":1,"rt":1628},{"slide":"test","cond":"ds","leftPic":"ds1a","rightPic":"ds1b","trialNum":10,"key":"h","correct":1,"rt":1266},{"slide":"test","cond":"ds","leftPic":"ds2a","rightPic":"ds2b","trialNum":11,"key":"h","correct":1,"rt":771},{"slide":"test","cond":"ap","leftPic":"ap3a","rightPic":"ap3b","trialNum":12,"key":"a","correct":1,"rt":1714},{"slide":"test","cond":"ds","leftPic":"ds3a","rightPic":"ds3b","trialNum":13,"key":"h","correct":1,"rt":1303},{"slide":"test","cond":"ds","leftPic":"ds4a","rightPic":"ds4b","trialNum":14,"key":"h","correct":1,"rt":1009},{"slide":"test","cond":"ds","leftPic":"ds5a","rightPic":"ds5b","trialNum":15,"key":"h","correct":1,"rt":590},{"slide":"test","cond":"ap","leftPic":"ap4a","rightPic":"ap4b","trialNum":16,"key":"a","correct":1,"rt":1512},{"slide":"test","cond":"ap","leftPic":"ap5a","rightPic":"ap5b","trialNum":17,"key":"a","correct":1,"rt":1308},{"slide":"test","cond":"ap","leftPic":"ap6a","rightPic":"ap6b","trialNum":18,"key":"a","correct":1,"rt":916},{"slide":"test","cond":"ss","leftPic":"ss5a","rightPic":"ss5b","trialNum":19,"key":"h","correct":1,"rt":1357},{"slide":"test","cond":"ss","leftPic":"ss6a","rightPic":"ss6b","trialNum":20,"key":"h","correct":1,"rt":572},{"slide":"test","cond":"ds","leftPic":"ds6a","rightPic":"ds6b","trialNum":21,"key":"h","correct":1,"rt":527},{"slide":"test","cond":"ds","leftPic":"ds7a","rightPic":"ds7b","trialNum":22,"key":"h","correct":1,"rt":476},{"slide":"test","cond":"ss","leftPic":"ss7a","rightPic":"ss7b","trialNum":23,"key":"h","correct":1,"rt":491},{"slide":"test","cond":"ss","leftPic":"ss8a","rightPic":"ss8b","trialNum":24,"key":"h","correct":1,"rt":496},{"slide":"test","cond":"ap","leftPic":"ap7a","rightPic":"ap7b","trialNum":25,"key":"a","correct":1,"rt":1283},{"slide":"test","cond":"ap","leftPic":"ap8a","rightPic":"ap8b","trialNum":26,"key":"a","correct":1,"rt":1024},{"slide":"test","cond":"ap","leftPic":"ap9a","rightPic":"ap9b","trialNum":27,"key":"a","correct":1,"rt":1123},{"slide":"test","cond":"dd","leftPic":"dd4a","rightPic":"dd4b","trialNum":28,"key":"h","correct":1,"rt":2007},{"slide":"test","cond":"ds","leftPic":"ds8a","rightPic":"ds8b","trialNum":29,"key":"h","correct":1,"rt":878},{"slide":"test","cond":"ss","leftPic":"ss9a","rightPic":"ss9b","trialNum":30,"key":"h","correct":1,"rt":651},{"slide":"test","cond":"ap","leftPic":"ap10a","rightPic":"ap10b","trialNum":31,"key":"a","correct":1,"rt":1737},{"slide":"test","cond":"ap","leftPic":"ap11a","rightPic":"ap11b","trialNum":32,"key":"a","correct":1,"rt":901},{"slide":"test","cond":"ap","leftPic":"ap12a","rightPic":"ap12b","trialNum":33,"key":"a","correct":1,"rt":613},{"slide":"test","cond":"ss","leftPic":"ss10a","rightPic":"ss10b","trialNum":34,"key":"h","correct":1,"rt":1584},{"slide":"test","cond":"ap","leftPic":"ap13a","rightPic":"ap13b","trialNum":35,"key":"a","correct":1,"rt":1961},{"slide":"test","cond":"ss","leftPic":"ss11a","rightPic":"ss11b","trialNum":36,"key":"h","correct":1,"rt":1738},{"slide":"test","cond":"ap","leftPic":"ap14a","rightPic":"ap14b","trialNum":37,"key":"a","correct":1,"rt":1629},{"slide":"test","cond":"ap","leftPic":"ap15a","rightPic":"ap15b","trialNum":38,"key":"a","correct":1,"rt":1161},{"slide":"test","cond":"ap","leftPic":"ap16a","rightPic":"ap16b","trialNum":39,"key":"a","correct":1,"rt":989},{"slide":"test","cond":"dd","leftPic":"dd5a","rightPic":"dd5b","trialNum":40,"key":"h","correct":1,"rt":1948},{"slide":"test","cond":"ap","leftPic":"ap17a","rightPic":"ap17b","trialNum":41,"key":"a","correct":1,"rt":1590},{"slide":"test","cond":"ds","leftPic":"ds9a","rightPic":"ds9b","trialNum":42,"key":"h","correct":1,"rt":1480},{"slide":"test","cond":"ap","leftPic":"ap18a","rightPic":"ap18b","trialNum":43,"key":"a","correct":1,"rt":1559},{"slide":"test","cond":"ds","leftPic":"ds10a","rightPic":"ds10b","trialNum":44,"key":"h","correct":1,"rt":1451},{"slide":"test","cond":"ds","leftPic":"ds11a","rightPic":"ds11b","trialNum":45,"key":"h","correct":1,"rt":1048},{"slide":"test","cond":"ds","leftPic":"ds12a","rightPic":"ds12b","trialNum":46,"key":"h","correct":1,"rt":621},{"slide":"test","cond":"ap","leftPic":"ap19a","rightPic":"ap19b","trialNum":47,"key":"a","correct":1,"rt":1706},{"slide":"test","cond":"dd","leftPic":"dd6a","rightPic":"dd6b","trialNum":48,"key":"h","correct":1,"rt":1591},{"slide":"test","cond":"dd","leftPic":"dd7a","rightPic":"dd7b","trialNum":49,"key":"h","correct":1,"rt":815},{"slide":"test","cond":"dd","leftPic":"dd8a","rightPic":"dd8b","trialNum":50,"key":"h","correct":1,"rt":509},{"slide":"test","cond":"ss","leftPic":"ss12a","rightPic":"ss12b","trialNum":51,"key":"h","correct":1,"rt":488},{"slide":"test","cond":"ds","leftPic":"ds13a","rightPic":"ds13b","trialNum":52,"key":"h","correct":1,"rt":447},{"slide":"test","cond":"ss","leftPic":"ss13a","rightPic":"ss13b","trialNum":53,"key":"h","correct":1,"rt":476},{"slide":"test","cond":"ds","leftPic":"ds14a","rightPic":"ds14b","trialNum":54,"key":"h","correct":1,"rt":464},{"slide":"test","cond":"ap","leftPic":"ap20a","rightPic":"ap20b","trialNum":55,"key":"a","correct":1,"rt":2028},{"slide":"test","cond":"ap","leftPic":"ap21a","rightPic":"ap21b","trialNum":56,"key":"a","correct":1,"rt":710},{"slide":"test","cond":"ap","leftPic":"ap22a","rightPic":"ap22b","trialNum":57,"key":"a","correct":1,"rt":558},{"slide":"test","cond":"ds","leftPic":"ds15a","rightPic":"ds15b","trialNum":58,"key":"h","correct":1,"rt":1886},{"slide":"test","cond":"dd","leftPic":"dd9a","rightPic":"dd9b","trialNum":59,"key":"h","correct":1,"rt":610},{"slide":"test","cond":"ss","leftPic":"ss14a","rightPic":"ss14b","trialNum":60,"key":"h","correct":1,"rt":439},{"slide":"test","cond":"dd","leftPic":"dd10a","rightPic":"dd10b","trialNum":61,"key":"h","correct":1,"rt":473},{"slide":"test","cond":"ap","leftPic":"ap23a","rightPic":"ap23b","trialNum":62,"key":"a","correct":1,"rt":1584},{"slide":"test","cond":"ap","leftPic":"ap24a","rightPic":"ap24b","trialNum":63,"key":"a","correct":1,"rt":1026},{"slide":"test","cond":"dd","leftPic":"dd11a","rightPic":"dd11b","trialNum":64,"key":"h","correct":1,"rt":1457},{"slide":"test","cond":"ap","leftPic":"ap25a","rightPic":"ap25b","trialNum":65,"key":"a","correct":1,"rt":1334},{"slide":"test","cond":"dd","leftPic":"dd12a","rightPic":"dd12b","trialNum":66,"key":"h","correct":1,"rt":2092},{"slide":"test","cond":"ap","leftPic":"ap26a","rightPic":"ap26b","trialNum":67,"key":"a","correct":1,"rt":1528},{"slide":"test","cond":"dd","leftPic":"dd13a","rightPic":"dd13b","trialNum":68,"key":"h","correct":1,"rt":1531},{"slide":"test","cond":"ds","leftPic":"ds16a","rightPic":"ds16b","trialNum":69,"key":"h","correct":1,"rt":659},{"slide":"test","cond":"ds","leftPic":"ds17a","rightPic":"ds17b","trialNum":70,"key":"h","correct":1,"rt":509},{"slide":"test","cond":"ap","leftPic":"ap27a","rightPic":"ap27b","trialNum":71,"key":"a","correct":1,"rt":1688},{"slide":"test","cond":"ap","leftPic":"ap28a","rightPic":"ap28b","trialNum":72,"key":"a","correct":1,"rt":768},{"slide":"test","cond":"dd","leftPic":"dd14a","rightPic":"dd14b","trialNum":73,"key":"h","correct":1,"rt":1465},{"slide":"test","cond":"dd","leftPic":"dd15a","rightPic":"dd15b","trialNum":74,"key":"h","correct":1,"rt":527},{"slide":"test","cond":"dd","leftPic":"dd16a","rightPic":"dd16b","trialNum":75,"key":"h","correct":1,"rt":593},{"slide":"test","cond":"dd","leftPic":"dd17a","rightPic":"dd17b","trialNum":76,"key":"h","correct":1,"rt":563},{"slide":"test","cond":"ds","leftPic":"ds18a","rightPic":"ds18b","trialNum":77,"key":"h","correct":1,"rt":495},{"slide":"test","cond":"ss","leftPic":"ss15a","rightPic":"ss15b","trialNum":78,"key":"h","correct":1,"rt":626},{"slide":"test","cond":"dd","leftPic":"dd18a","rightPic":"dd18b","trialNum":79,"key":"h","correct":1,"rt":723},{"slide":"test","cond":"ap","leftPic":"ap29a","rightPic":"ap29b","trialNum":80,"key":"a","correct":1,"rt":1704},{"slide":"test","cond":"ss","leftPic":"ss16a","rightPic":"ss16b","trialNum":81,"key":"h","correct":1,"rt":1598},{"slide":"test","cond":"ss","leftPic":"ss17a","rightPic":"ss17b","trialNum":82,"key":"h","correct":1,"rt":728},{"slide":"test","cond":"ap","leftPic":"ap30a","rightPic":"ap30b","trialNum":83,"key":"a","correct":1,"rt":1499},{"slide":"test","cond":"ss","leftPic":"ss18a","rightPic":"ss18b","trialNum":84,"key":"h","correct":1,"rt":1443},{"slide":"test","cond":"ss","leftPic":"ss19a","rightPic":"ss19b","trialNum":85,"key":"h","correct":1,"rt":821},{"slide":"test","cond":"ds","leftPic":"ds19a","rightPic":"ds19b","trialNum":86,"key":"h","correct":1,"rt":558},{"slide":"test","cond":"ss","leftPic":"ss20a","rightPic":"ss20b","trialNum":87,"key":"h","correct":1,"rt":532},{"slide":"test","cond":"dd","leftPic":"dd19a","rightPic":"dd19b","trialNum":88,"key":"h","correct":1,"rt":582},{"slide":"test","cond":"dd","leftPic":"dd20a","rightPic":"dd20b","trialNum":89,"key":"h","correct":1,"rt":522},{"slide":"test","cond":"ap","leftPic":"ap31a","rightPic":"ap31b","trialNum":90,"key":"a","correct":1,"rt":1512},{"slide":"test","cond":"ds","leftPic":"ds20a","rightPic":"ds20b","trialNum":91,"key":"h","correct":1,"rt":2037},{"slide":"test","cond":"ap","leftPic":"ap32a","rightPic":"ap32b","trialNum":92,"key":"a","correct":1,"rt":1503}]