[{"slide":"test","cond":"ap","leftPic":"ap32b","rightPic":"ap32a","trialNum":1,"key":"a","correct":1,"rt":3670},{"slide":"test","cond":"ds","leftPic":"ds20b","rightPic":"ds20a","trialNum":2,"key":"h","correct":1,"rt":3310},{"slide":"test","cond":"ds","leftPic":"ds19b","rightPic":"ds19a","trialNum":3,"key":"h","correct":1,"rt":2551},{"slide":"test","cond":"ds","leftPic":"ds18b","rightPic":"ds18a","trialNum":4,"key":"h","correct":1,"rt":3283},{"slide":"test","cond":"ss","leftPic":"ss20b","rightPic":"ss20a","trialNum":5,"key":"h","correct":1,"rt":2530},{"slide":"test","cond":"dd","leftPic":"dd20b","rightPic":"dd20a","trialNum":6,"key":"h","correct":1,"rt":4702},{"slide":"test","cond":"ss","leftPic":"ss19b","rightPic":"ss19a","trialNum":7,"key":"h","correct":1,"rt":2767},{"slide":"test","cond":"ap","leftPic":"ap31b","rightPic":"ap31a","trialNum":8,"key":"a","correct":1,"rt":2577},{"slide":"test","cond":"ss","leftPic":"ss18b","rightPic":"ss18a","trialNum":9,"key":"h","correct":1,"rt":2566},{"slide":"test","cond":"dd","leftPic":"dd19b","rightPic":"dd19a","trialNum":10,"key":"h","correct":1,"rt":1830},{"slide":"test","cond":"ap","leftPic":"ap30b","rightPic":"ap30a","trialNum":11,"key":"a","correct":1,"rt":2886},{"slide":"test","cond":"ss","leftPic":"ss17b","rightPic":"ss17a","trialNum":12,"key":"h","correct":1,"rt":2127},{"slide":"test","cond":"ds","leftPic":"ds17b","rightPic":"ds17a","trialNum":13,"key":"h","correct":1,"rt":9216},{"slide":"test","cond":"dd","leftPic":"dd18b","rightPic":"dd18a","trialNum":14,"key":"h","correct":1,"rt":3955},{"slide":"test","cond":"ds","leftPic":"ds16b","rightPic":"ds16a","trialNum":15,"key":"h","correct":1,"rt":1891},{"slide":"test","cond":"ap","leftPic":"ap29b","rightPic":"ap29a","trialNum":16,"key":"a","correct":1,"rt":2139},{"slide":"test","cond":"ap","leftPic":"ap28b","rightPic":"ap28a","trialNum":17,"key":"a","correct":1,"rt":2524},{"slide":"test","cond":"ap","leftPic":"ap27b","rightPic":"ap27a","trialNum":18,"key":"a","correct":1,"rt":2733},{"slide":"test","cond":"ds","leftPic":"ds15b","rightPic":"ds15a","trialNum":19,"key":"h","correct":1,"rt":2447},{"slide":"test","cond":"ds","leftPic":"ds14b","rightPic":"ds14a","trialNum":20,"key":"h","correct":1,"rt":792},{"slide":"test","cond":"ss","leftPic":"ss16b","rightPic":"ss16a","trialNum":21,"key":"h","correct":1,"rt":2897},{"slide":"test","cond":"ss","leftPic":"ss15b","rightPic":"ss15a","trialNum":22,"key":"h","correct":1,"rt":5064},{"slide":"test","cond":"ap","leftPic":"ap26b","rightPic":"ap26a","trialNum":23,"key":"a","correct":1,"rt":2946},{"slide":"test","cond":"ap","leftPic":"ap25b","rightPic":"ap25a","trialNum":24,"key":"a","correct":1,"rt":3050},{"slide":"test","cond":"ap","leftPic":"ap24b","rightPic":"ap24a","trialNum":25,"key":"a","correct":1,"rt":4564},{"slide":"test","cond":"ap","leftPic":"ap23b","rightPic":"ap23a","trialNum":26,"key":"a","correct":1,"rt":1850},{"slide":"test","cond":"dd","leftPic":"dd17b","rightPic":"dd17a","trialNum":27,"key":"h","correct":1,"rt":899},{"slide":"test","cond":"ap","leftPic":"ap22b","rightPic":"ap22a","trialNum":28,"key":"a","correct":1,"rt":935},{"slide":"test","cond":"ss","leftPic":"ss14b","rightPic":"ss14a","trialNum":29,"key":"h","correct":1,"rt":985},{"slide":"test","cond":"ap","leftPic":"ap21b","rightPic":"ap21a","trialNum":30,"key":"a","correct":1,"rt":1314},{"slide":"test","cond":"ss","leftPic":"ss13b","rightPic":"ss13a","trialNum":31,"key":"h","correct":1,"rt":734},{"slide":"test","cond":"ss","leftPic":"ss12b","rightPic":"ss12a","trialNum":32,"key":"h","correct":1,"rt":505},{"slide":"test","cond":"dd","leftPic":"dd16b","rightPic":"dd16a","trialNum":33,"key":"h","correct":1,"rt":445},{"slide":"test","cond":"dd","leftPic":"dd15b","rightPic":"dd15a","trialNum":34,"key":"h","correct":1,"rt":450},{"slide":"test","cond":"ap","leftPic":"ap20b","rightPic":"ap20a","trialNum":35,"key":"a","correct":1,"rt":516},{"slide":"test","cond":"dd","leftPic":"dd14b","rightPic":"dd14a","trialNum":36,"key":"h","correct":1,"rt":618},{"slide":"test","cond":"ds","leftPic":"ds13b","rightPic":"ds13a","trialNum":37,"key":"h","correct":1,"rt":369},{"slide":"test","cond":"dd","leftPic":"dd13b","rightPic":"dd13a","trialNum":38,"key":"h","correct":1,"rt":373},{"slide":"test","cond":"dd","leftPic":"dd12b","rightPic":"dd12a","trialNum":39,"key":"h","correct":1,"rt":499},{"slide":"test","cond":"ap","leftPic":"ap19b","rightPic":"ap19a","trialNum":40,"key":"a","correct":1,"rt":553},{"slide":"test","cond":"ap","leftPic":"ap18b","rightPic":"ap18a","trialNum":41,"key":"a","correct":1,"rt":537},{"slide":"test","cond":"ap","leftPic":"ap17b","rightPic":"ap17a","trialNum":42,"key":"a","correct":1,"rt":537},{"slide":"test","cond":"ds","leftPic":"ds12b","rightPic":"ds12a","trialNum":43,"key":"h","correct":1,"rt":478},{"slide":"test","cond":"dd","leftPic":"dd11b","rightPic":"dd11a","trialNum":44,"key":"h","correct":1,"rt":380},{"slide":"test","cond":"ap","leftPic":"ap16b","rightPic":"ap16a","trialNum":45,"key":"a","correct":1,"rt":565},{"slide":"test","cond":"ap","leftPic":"ap15b","rightPic":"ap15a","trialNum":46,"key":"a","correct":1,"rt":548},{"slide":"test","cond":"dd","leftPic":"dd10b","rightPic":"dd10a","trialNum":47,"key":"h","correct":1,"rt":482},{"slide":"test","cond":"ap","leftPic":"ap14b","rightPic":"ap14a","trialNum":48,"key":"a","correct":1,"rt":571},{"slide":"test","cond":"ap","leftPic":"ap13b","rightPic":"ap13a","trialNum":49,"key":"a","correct":1,"rt":576},{"slide":"test","cond":"ds","leftPic":"ds11b","rightPic":"ds11a","trialNum":50,"key":"h","correct":1,"rt":900},{"slide":"test","cond":"ap","leftPic":"ap12b","rightPic":"ap12a","trialNum":51,"key":"a","correct":1,"rt":537},{"slide":"test","cond":"ds","leftPic":"ds10b","rightPic":"ds10a","trialNum":52,"key":"h","correct":1,"rt":994},{"slide":"test","cond":"dd","leftPic":"dd9b","rightPic":"dd9a","trialNum":53,"key":"h","correct":1,"rt":422},{"slide":"test","cond":"ss","leftPic":"ss11b","rightPic":"ss11a","trialNum":54,"key":"h","correct":1,"rt":575},{"slide":"test","cond":"ds","leftPic":"ds9b","rightPic":"ds9a","trialNum":55,"key":"h","correct":1,"rt":414},{"slide":"test","cond":"ds","leftPic":"ds8b","rightPic":"ds8a","trialNum":56,"key":"h","correct":1,"rt":495},{"slide":"test","cond":"dd","leftPic":"dd8b","rightPic":"dd8a","trialNum":57,"key":"h","correct":1,"rt":400},{"slide":"test","cond":"ds","leftPic":"ds7b","rightPic":"ds7a","trialNum":58,"key":"h","correct":1,"rt":345},{"slide":"test","cond":"ss","leftPic":"ss10b","rightPic":"ss10a","trialNum":59,"key":"h","correct":1,"rt":325},{"slide":"test","cond":"ap","leftPic":"ap11b","rightPic":"ap11a","trialNum":60,"key":"a","correct":1,"rt":714},{"slide":"test","cond":"dd","leftPic":"dd7b","rightPic":"dd7a","trialNum":61,"key":"h","correct":1,"rt":880},{"slide":"test","cond":"ap","leftPic":"ap10b","rightPic":"ap10a","trialNum":62,"key":"a","correct":1,"rt":813},{"slide":"test","cond":"ss","leftPic":"ss9b","rightPic":"ss9a","trialNum":63,"key":"h","correct":1,"rt":952},{"slide":"test","cond":"dd","leftPic":"dd6b","rightPic":"dd6a","trialNum":64,"key":"h","correct":1,"rt":503},{"slide":"test","cond":"ap","leftPic":"ap9b","rightPic":"ap9a","trialNum":65,"key":"a","correct":1,"rt":575},{"slide":"test","cond":"ap","leftPic":"ap8b","rightPic":"ap8a","trialNum":66,"key":"a","correct":1,"rt":987},{"slide":"test","cond":"dd","leftPic":"dd5b","rightPic":"dd5a","trialNum":67,"key":"h","correct":1,"rt":731},{"slide":"test","cond":"ds","leftPic":"ds6b","rightPic":"ds6a","trialNum":68,"key":"h","correct":1,"rt":1636},{"slide":"test","cond":"ds","leftPic":"ds5b","rightPic":"ds5a","trialNum":69,"key":"h","correct":1,"rt":943},{"slide":"test","cond":"dd","leftPic":"dd4b","rightPic":"dd4a","trialNum":70,"key":"h","correct":1,"rt":564},{"slide":"test","cond":"ap","leftPic":"ap7b","rightPic":"ap7a","trialNum":71,"key":"a","correct":1,"rt":1139},{"slide":"test","cond":"ds","leftPic":"ds4b","rightPic":"ds4a","trialNum":72,"key":"h","correct":1,"rt":757},{"slide":"test","cond":"dd","leftPic":"dd3b","rightPic":"dd3a","trialNum":73,"key":"h","correct":1,"rt":1891},{"slide":"test","cond":"ap","leftPic":"ap6b","rightPic":"ap6a","trialNum":74,"key":"a","correct":1,"rt":2321},{"slide":"test","cond":"ss","leftPic":"ss8b","rightPic":"ss8a","trialNum":75,"key":"h","correct":1,"rt":735},{"slide":"test","cond":"ap","leftPic":"ap5b","rightPic":"ap5a","trialNum":76,"key":"a","correct":1,"rt":1307},{"slide":"test","cond":"ss","leftPic":"ss7b","rightPic":"ss7a","trialNum":77,"key":"h","correct":1,"rt":2004},{"slide":"test","cond":"ss","leftPic":"ss6b","rightPic":"ss6a","trialNum":78,"key":"h","correct":1,"rt":1362},{"slide":"test","cond":"ss","leftPic":"ss5b","rightPic":"ss5a","trialNum":79,"key":"h","correct":1,"rt":1002},{"slide":"test","cond":"ap","leftPic":"ap4b","rightPic":"ap4a","trialNum":80,"key":"a","correct":1,"rt":649},{"slide":"test","cond":"ss","leftPic":"ss4b","rightPic":"ss4a","trialNum":81,"key":"h","correct":1,"rt":1585},{"slide":"test","cond":"ap","leftPic":"ap3b","rightPic":"ap3a","trialNum":82,"key":"a","correct":1,"rt":780},{"slide":"test","cond":"ds","leftPic":"ds3b","rightPic":"ds3a","trialNum":83,"key":"h","correct":1,"rt":830},{"slide":"test","cond":"ss","leftPic":"ss3b","rightPic":"ss3a","trialNum":84,"key":"h","correct":1,"rt":1278},{"slide":"test","cond":"ds","leftPic":"ds2b","rightPic":"ds2a","trialNum":85,"key":"h","correct":1,"rt":578},{"slide":"test","cond":"ss","leftPic":"ss2b","rightPic":"ss2a","trialNum":86,"key":"h","correct":1,"rt":536},{"slide":"test","cond":"dd","leftPic":"dd2b","rightPic":"dd2a","trialNum":87,"key":"h","correct":1,"rt":539},{"slide":"test","cond":"dd","leftPic":"dd1b","rightPic":"dd1a","trialNum":88,"key":"h","correct":1,"rt":573},{"slide":"test","cond":"ds","leftPic":"ds1b","rightPic":"ds1a","trialNum":89,"key":"h","correct":1,"rt":628},{"slide":"test","cond":"ss","leftPic":"ss1b","rightPic":"ss1a","trialNum":90,"key":"h","correct":1,"rt":1106},{"slide":"test","cond":"ap","leftPic":"ap2b","rightPic":"ap2a","trialNum":91,"key":"a","correct":1,"rt":710},{"slide":"test","cond":"ap","leftPic":"ap1b","rightPic":"ap1a","trialNum":92,"key":"a","correct":1,"rt":1106}]