[{"slide":"test","cond":"ds","leftPic":"ds20b","rightPic":"ds20a","trialNum":1,"key":"h","correct":1,"rt":2350},{"slide":"test","cond":"dd","leftPic":"dd20b","rightPic":"dd20a","trialNum":2,"key":"h","correct":1,"rt":3317},{"slide":"test","cond":"ss","leftPic":"ss20b","rightPic":"ss20a","trialNum":3,"key":"h","correct":1,"rt":1517},{"slide":"test","cond":"ap","leftPic":"ap32b","rightPic":"ap32a","trialNum":4,"key":"a","correct":1,"rt":1553},{"slide":"test","cond":"ss","leftPic":"ss19b","rightPic":"ss19a","trialNum":5,"key":"h","correct":1,"rt":1305},{"slide":"test","cond":"ds","leftPic":"ds19b","rightPic":"ds19a","trialNum":6,"key":"h","correct":1,"rt":828},{"slide":"test","cond":"dd","leftPic":"dd19b","rightPic":"dd19a","trialNum":7,"key":"h","correct":1,"rt":802},{"slide":"test","cond":"dd","leftPic":"dd18b","rightPic":"dd18a","trialNum":8,"key":"h","correct":1,"rt":808},{"slide":"test","cond":"ap","leftPic":"ap31b","rightPic":"ap31a","trialNum":9,"key":"a","correct":1,"rt":1481},{"slide":"test","cond":"dd","leftPic":"dd17b","rightPic":"dd17a","trialNum":10,"key":"h","correct":1,"rt":1448},{"slide":"test","cond":"ss","leftPic":"ss18b","rightPic":"ss18a","trialNum":11,"key":"h","correct":1,"rt":835},{"slide":"test","cond":"ss","leftPic":"ss17b","rightPic":"ss17a","trialNum":12,"key":"h","correct":1,"rt":760},{"slide":"test","cond":"dd","leftPic":"dd16b","rightPic":"dd16a","trialNum":13,"key":"h","correct":1,"rt":793},{"slide":"test","cond":"dd","leftPic":"dd15b","rightPic":"dd15a","trialNum":14,"key":"h","correct":1,"rt":840},{"slide":"test","cond":"dd","leftPic":"dd14b","rightPic":"dd14a","trialNum":15,"key":"h","correct":1,"rt":827},{"slide":"test","cond":"ss","leftPic":"ss16b","rightPic":"ss16a","trialNum":16,"key":"h","correct":1,"rt":787},{"slide":"test","cond":"ds","leftPic":"ds18b","rightPic":"ds18a","trialNum":17,"key":"h","correct":1,"rt":733},{"slide":"test","cond":"dd","leftPic":"dd13b","rightPic":"dd13a","trialNum":18,"key":"h","correct":1,"rt":702},{"slide":"test","cond":"ap","leftPic":"ap30b","rightPic":"ap30a","trialNum":19,"key":"a","correct":1,"rt":2171},{"slide":"test","cond":"dd","leftPic":"dd12b","rightPic":"dd12a","trialNum":20,"key":"h","correct":1,"rt":2998},{"slide":"test","cond":"ss","leftPic":"ss15b","rightPic":"ss15a","trialNum":21,"key":"h","correct":1,"rt":676},{"slide":"test","cond":"ap","leftPic":"ap29b","rightPic":"ap29a","trialNum":22,"key":"a","correct":1,"rt":1447},{"slide":"test","cond":"ap","leftPic":"ap28b","rightPic":"ap28a","trialNum":23,"key":"a","correct":1,"rt":802},{"slide":"test","cond":"dd","leftPic":"dd11b","rightPic":"dd11a","trialNum":24,"key":"h","correct":1,"rt":1235},{"slide":"test","cond":"ds","leftPic":"ds17b","rightPic":"ds17a","trialNum":25,"key":"h","correct":1,"rt":715},{"slide":"test","cond":"dd","leftPic":"dd10b","rightPic":"dd10a","trialNum":26,"key":"h","correct":1,"rt":777},{"slide":"test","cond":"ss","leftPic":"ss14b","rightPic":"ss14a","trialNum":27,"key":"h","correct":1,"rt":825},{"slide":"test","cond":"ap","leftPic":"ap27b","rightPic":"ap27a","trialNum":28,"key":"a","correct":1,"rt":2331},{"slide":"test","cond":"ds","leftPic":"ds16b","rightPic":"ds16a","trialNum":29,"key":"h","correct":1,"rt":1115},{"slide":"test","cond":"ss","leftPic":"ss13b","rightPic":"ss13a","trialNum":30,"key":"h","correct":1,"rt":823},{"slide":"test","cond":"ds","leftPic":"ds15b","rightPic":"ds15a","trialNum":31,"key":"h","correct":1,"rt":819},{"slide":"test","cond":"ap","leftPic":"ap26b","rightPic":"ap26a","trialNum":32,"key":"a","correct":1,"rt":2981},{"slide":"test","cond":"dd","leftPic":"dd9b","rightPic":"dd9a","trialNum":33,"key":"h","correct":1,"rt":1310},{"slide":"test","cond":"ss","leftPic":"ss12b","rightPic":"ss12a","trialNum":34,"key":"h","correct":1,"rt":894},{"slide":"test","cond":"ap","leftPic":"ap25b","rightPic":"ap25a","trialNum":35,"key":"a","correct":1,"rt":1458},{"slide":"test","cond":"ap","leftPic":"ap24b","rightPic":"ap24a","trialNum":36,"key":"a","correct":1,"rt":928},{"slide":"test","cond":"dd","leftPic":"dd8b","rightPic":"dd8a","trialNum":37,"key":"h","correct":1,"rt":1713},{"slide":"test","cond":"ss","leftPic":"ss11b","rightPic":"ss11a","trialNum":38,"key":"h","correct":1,"rt":924},{"slide":"test","cond":"ds","leftPic":"ds14b","rightPic":"ds14a","trialNum":39,"key":"h","correct":1,"rt":1099},{"slide":"test","cond":"dd","leftPic":"dd7b","rightPic":"dd7a","trialNum":40,"key":"h","correct":1,"rt":1039},{"slide":"test","cond":"ap","leftPic":"ap23b","rightPic":"ap23a","trialNum":41,"key":"a","correct":1,"rt":1687},{"slide":"test","cond":"ap","leftPic":"ap22b","rightPic":"ap22a","trialNum":42,"key":"a","correct":1,"rt":1442},{"slide":"test","cond":"ds","leftPic":"ds13b","rightPic":"ds13a","trialNum":43,"key":"h","correct":1,"rt":1594},{"slide":"test","cond":"ds","leftPic":"ds12b","rightPic":"ds12a","trialNum":44,"key":"h","correct":1,"rt":1219},{"slide":"test","cond":"ds","leftPic":"ds11b","rightPic":"ds11a","trialNum":45,"key":"h","correct":1,"rt":1071},{"slide":"test","cond":"ds","leftPic":"ds10b","rightPic":"ds10a","trialNum":46,"key":"h","correct":1,"rt":950},{"slide":"test","cond":"dd","leftPic":"dd6b","rightPic":"dd6a","trialNum":47,"key":"h","correct":1,"rt":1088},{"slide":"test","cond":"dd","leftPic":"dd5b","rightPic":"dd5a","trialNum":48,"key":"h","correct":1,"rt":860},{"slide":"test","cond":"ap","leftPic":"ap21b","rightPic":"ap21a","trialNum":49,"key":"a","correct":1,"rt":1455},{"slide":"test","cond":"ap","leftPic":"ap20b","rightPic":"ap20a","trialNum":50,"key":"a","correct":1,"rt":1153},{"slide":"test","cond":"ap","leftPic":"ap19b","rightPic":"ap19a","trialNum":51,"key":"a","correct":1,"rt":2196},{"slide":"test","cond":"ss","leftPic":"ss10b","rightPic":"ss10a","trialNum":52,"key":"h","correct":1,"rt":3870},{"slide":"test","cond":"ss","leftPic":"ss9b","rightPic":"ss9a","trialNum":53,"key":"h","correct":1,"rt":1367},{"slide":"test","cond":"ds","leftPic":"ds9b","rightPic":"ds9a","trialNum":54,"key":"h","correct":1,"rt":964},{"slide":"test","cond":"ss","leftPic":"ss8b","rightPic":"ss8a","trialNum":55,"key":"h","correct":1,"rt":921},{"slide":"test","cond":"ds","leftPic":"ds8b","rightPic":"ds8a","trialNum":56,"key":"h","correct":1,"rt":770},{"slide":"test","cond":"ap","leftPic":"ap18b","rightPic":"ap18a","trialNum":57,"key":"a","correct":1,"rt":1465},{"slide":"test","cond":"ap","leftPic":"ap17b","rightPic":"ap17a","trialNum":58,"key":"a","correct":1,"rt":886},{"slide":"test","cond":"ss","leftPic":"ss7b","rightPic":"ss7a","trialNum":59,"key":"h","correct":1,"rt":1402},{"slide":"test","cond":"ap","leftPic":"ap16b","rightPic":"ap16a","trialNum":60,"key":"a","correct":1,"rt":1712},{"slide":"test","cond":"ap","leftPic":"ap15b","rightPic":"ap15a","trialNum":61,"key":"a","correct":1,"rt":1068},{"slide":"test","cond":"ds","leftPic":"ds7b","rightPic":"ds7a","trialNum":62,"key":"h","correct":1,"rt":1431},{"slide":"test","cond":"dd","leftPic":"dd4b","rightPic":"dd4a","trialNum":63,"key":"h","correct":1,"rt":1048},{"slide":"test","cond":"ap","leftPic":"ap14b","rightPic":"ap14a","trialNum":64,"key":"a","correct":1,"rt":1461},{"slide":"test","cond":"ap","leftPic":"ap13b","rightPic":"ap13a","trialNum":65,"key":"a","correct":1,"rt":1051},{"slide":"test","cond":"ap","leftPic":"ap12b","rightPic":"ap12a","trialNum":66,"key":"a","correct":1,"rt":1058},{"slide":"test","cond":"ap","leftPic":"ap11b","rightPic":"ap11a","trialNum":67,"key":"a","correct":1,"rt":1208},{"slide":"test","cond":"ap","leftPic":"ap10b","rightPic":"ap10a","trialNum":68,"key":"a","correct":1,"rt":996},{"slide":"test","cond":"dd","leftPic":"dd3b","rightPic":"dd3a","trialNum":69,"key":"h","correct":1,"rt":1442},{"slide":"test","cond":"ds","leftPic":"ds6b","rightPic":"ds6a","trialNum":70,"key":"h","correct":1,"rt":934},{"slide":"test","cond":"ss","leftPic":"ss6b","rightPic":"ss6a","trialNum":71,"key":"h","correct":1,"rt":1065},{"slide":"test","cond":"ap","leftPic":"ap9b","rightPic":"ap9a","trialNum":72,"key":"a","correct":1,"rt":1378},{"slide":"test","cond":"ds","leftPic":"ds5b","rightPic":"ds5a","trialNum":73,"key":"h","correct":1,"rt":1492},{"slide":"test","cond":"ss","leftPic":"ss5b","rightPic":"ss5a","trialNum":74,"key":"h","correct":1,"rt":1080},{"slide":"test","cond":"ds","leftPic":"ds4b","rightPic":"ds4a","trialNum":75,"key":"h","correct":1,"rt":1215},{"slide":"test","cond":"ds","leftPic":"ds3b","rightPic":"ds3a","trialNum":76,"key":"h","correct":1,"rt":1167},{"slide":"test","cond":"ds","leftPic":"ds2b","rightPic":"ds2a","trialNum":77,"key":"h","correct":1,"rt":1229},{"slide":"test","cond":"ds","leftPic":"ds1b","rightPic":"ds1a","trialNum":78,"key":"h","correct":1,"rt":889},{"slide":"test","cond":"ss","leftPic":"ss4b","rightPic":"ss4a","trialNum":79,"key":"h","correct":1,"rt":1029},{"slide":"test","cond":"ss","leftPic":"ss3b","rightPic":"ss3a","trialNum":80,"key":"h","correct":1,"rt":1097},{"slide":"test","cond":"ap","leftPic":"ap8b","rightPic":"ap8a","trialNum":81,"key":"a","correct":1,"rt":1881},{"slide":"test","cond":"ap","leftPic":"ap7b","rightPic":"ap7a","trialNum":82,"key":"a","correct":1,"rt":1022},{"slide":"test","cond":"ss","leftPic":"ss2b","rightPic":"ss2a","trialNum":83,"key":"h","correct":1,"rt":1452},{"slide":"test","cond":"ap","leftPic":"ap6b","rightPic":"ap6a","trialNum":84,"key":"a","correct":1,"rt":1400},{"slide":"test","cond":"ap","leftPic":"ap5b","rightPic":"ap5a","trialNum":85,"key":"a","correct":1,"rt":809},{"slide":"test","cond":"ap","leftPic":"ap4b","rightPic":"ap4a","trialNum":86,"key":"a","correct":1,"rt":815},{"slide":"test","cond":"ss","leftPic":"ss1b","rightPic":"ss1a","trialNum":87,"key":"h","correct":1,"rt":1247},{"slide":"test","cond":"ap","leftPic":"ap3b","rightPic":"ap3a","trialNum":88,"key":"a","correct":1,"rt":1665},{"slide":"test","cond":"dd","leftPic":"dd2b","rightPic":"dd2a","trialNum":89,"key":"h","correct":1,"rt":2731},{"slide":"test","cond":"dd","leftPic":"dd1b","rightPic":"dd1a","trialNum":90,"key":"h","correct":1,"rt":970},{"slide":"test","cond":"ap","leftPic":"ap2b","rightPic":"ap2a","trialNum":91,"key":"a","correct":1,"rt":1604},{"slide":"test","cond":"ap","leftPic":"ap1b","rightPic":"ap1a","trialNum":92,"key":"a","correct":1,"rt":1003}]