[{"slide":"test","cond":"dd","leftPic":"dd20b","rightPic":"dd20a","trialNum":1,"key":"h","correct":1,"rt":3299},{"slide":"test","cond":"ss","leftPic":"ss20b","rightPic":"ss20a","trialNum":2,"key":"h","correct":1,"rt":2944},{"slide":"test","cond":"ds","leftPic":"ds20b","rightPic":"ds20a","trialNum":3,"key":"h","correct":1,"rt":717},{"slide":"test","cond":"ss","leftPic":"ss19b","rightPic":"ss19a","trialNum":4,"key":"h","correct":1,"rt":1880},{"slide":"test","cond":"ap","leftPic":"ap32b","rightPic":"ap32a","trialNum":5,"key":"a","correct":1,"rt":5196},{"slide":"test","cond":"ap","leftPic":"ap31b","rightPic":"ap31a","trialNum":6,"key":"a","correct":1,"rt":4189},{"slide":"test","cond":"dd","leftPic":"dd19b","rightPic":"dd19a","trialNum":7,"key":"h","correct":1,"rt":1357},{"slide":"test","cond":"ap","leftPic":"ap30b","rightPic":"ap30a","trialNum":8,"key":"a","correct":1,"rt":9889},{"slide":"test","cond":"ap","leftPic":"ap29b","rightPic":"ap29a","trialNum":9,"key":"a","correct":1,"rt":5242},{"slide":"test","cond":"ds","leftPic":"ds19b","rightPic":"ds19a","trialNum":10,"key":"h","correct":1,"rt":1150},{"slide":"test","cond":"ap","leftPic":"ap28b","rightPic":"ap28a","trialNum":11,"key":"a","correct":1,"rt":982},{"slide":"test","cond":"dd","leftPic":"dd18b","rightPic":"dd18a","trialNum":12,"key":"h","correct":1,"rt":611},{"slide":"test","cond":"dd","leftPic":"dd17b","rightPic":"dd17a","trialNum":13,"key":"h","correct":1,"rt":510},{"slide":"test","cond":"ds","leftPic":"ds18b","rightPic":"ds18a","trialNum":14,"key":"h","correct":1,"rt":433},{"slide":"test","cond":"ap","leftPic":"ap27b","rightPic":"ap27a","trialNum":15,"key":"a","correct":1,"rt":585},{"slide":"test","cond":"ss","leftPic":"ss18b","rightPic":"ss18a","trialNum":16,"key":"h","correct":1,"rt":654},{"slide":"test","cond":"ss","leftPic":"ss17b","rightPic":"ss17a","trialNum":17,"key":"h","correct":1,"rt":480},{"slide":"test","cond":"dd","leftPic":"dd16b","rightPic":"dd16a","trialNum":18,"key":"h","correct":1,"rt":485},{"slide":"test","cond":"ap","leftPic":"ap26b","rightPic":"ap26a","trialNum":19,"key":"a","correct":1,"rt":615},{"slide":"test","cond":"ds","leftPic":"ds17b","rightPic":"ds17a","trialNum":20,"key":"h","correct":1,"rt":564},{"slide":"test","cond":"dd","leftPic":"dd15b","rightPic":"dd15a","trialNum":21,"key":"h","correct":1,"rt":572},{"slide":"test","cond":"ap","leftPic":"ap25b","rightPic":"ap25a","trialNum":22,"key":"a","correct":1,"rt":617},{"slide":"test","cond":"dd","leftPic":"dd14b","rightPic":"dd14a","trialNum":23,"key":"h","correct":1,"rt":558},{"slide":"test","cond":"dd","leftPic":"dd13b","rightPic":"dd13a","trialNum":24,"key":"h","correct":1,"rt":580},{"slide":"test","cond":"ds","leftPic":"ds16b","rightPic":"ds16a","trialNum":25,"key":"h","correct":1,"rt":523},{"slide":"test","cond":"ap","leftPic":"ap24b","rightPic":"ap24a","trialNum":26,"key":"a","correct":1,"rt":575},{"slide":"test","cond":"ap","leftPic":"ap23b","rightPic":"ap23a","trialNum":27,"key":"a","correct":1,"rt":782},{"slide":"test","cond":"ap","leftPic":"ap22b","rightPic":"ap22a","trialNum":28,"key":"a","correct":1,"rt":698},{"slide":"test","cond":"dd","leftPic":"dd12b","rightPic":"dd12a","trialNum":29,"key":"h","correct":1,"rt":597},{"slide":"test","cond":"ss","leftPic":"ss16b","rightPic":"ss16a","trialNum":30,"key":"h","correct":1,"rt":468},{"slide":"test","cond":"ds","leftPic":"ds15b","rightPic":"ds15a","trialNum":31,"key":"h","correct":1,"rt":504},{"slide":"test","cond":"ap","leftPic":"ap21b","rightPic":"ap21a","trialNum":32,"key":"a","correct":1,"rt":603},{"slide":"test","cond":"dd","leftPic":"dd11b","rightPic":"dd11a","trialNum":33,"key":"h","correct":1,"rt":586},{"slide":"test","cond":"ds","leftPic":"ds14b","rightPic":"ds14a","trialNum":34,"key":"h","correct":1,"rt":566},{"slide":"test","cond":"dd","leftPic":"dd10b","rightPic":"dd10a","trialNum":35,"key":"h","correct":1,"rt":552},{"slide":"test","cond":"ds","leftPic":"ds13b","rightPic":"ds13a","trialNum":36,"key":"h","correct":1,"rt":501},{"slide":"test","cond":"ss","leftPic":"ss15b","rightPic":"ss15a","trialNum":37,"key":"h","correct":1,"rt":929},{"slide":"test","cond":"ds","leftPic":"ds12b","rightPic":"ds12a","trialNum":38,"key":"h","correct":1,"rt":806},{"slide":"test","cond":"ap","leftPic":"ap20b","rightPic":"ap20a","trialNum":39,"key":"a","correct":1,"rt":729},{"slide":"test","cond":"ss","leftPic":"ss14b","rightPic":"ss14a","trialNum":40,"key":"h","correct":1,"rt":717},{"slide":"test","cond":"ap","leftPic":"ap19b","rightPic":"ap19a","trialNum":41,"key":"a","correct":1,"rt":632},{"slide":"test","cond":"dd","leftPic":"dd9b","rightPic":"dd9a","trialNum":42,"key":"h","correct":1,"rt":616},{"slide":"test","cond":"ds","leftPic":"ds11b","rightPic":"ds11a","trialNum":43,"key":"h","correct":1,"rt":439},{"slide":"test","cond":"ds","leftPic":"ds10b","rightPic":"ds10a","trialNum":44,"key":"h","correct":1,"rt":489},{"slide":"test","cond":"dd","leftPic":"dd8b","rightPic":"dd8a","trialNum":45,"key":"h","correct":1,"rt":422},{"slide":"test","cond":"ds","leftPic":"ds9b","rightPic":"ds9a","trialNum":46,"key":"h","correct":1,"rt":610},{"slide":"test","cond":"dd","leftPic":"dd7b","rightPic":"dd7a","trialNum":47,"key":"h","correct":1,"rt":492},{"slide":"test","cond":"ap","leftPic":"ap18b","rightPic":"ap18a","trialNum":48,"key":"a","correct":1,"rt":552},{"slide":"test","cond":"ss","leftPic":"ss13b","rightPic":"ss13a","trialNum":49,"key":"h","correct":1,"rt":555},{"slide":"test","cond":"dd","leftPic":"dd6b","rightPic":"dd6a","trialNum":50,"key":"h","correct":1,"rt":546},{"slide":"test","cond":"ap","leftPic":"ap17b","rightPic":"ap17a","trialNum":51,"key":"a","correct":1,"rt":491},{"slide":"test","cond":"ap","leftPic":"ap16b","rightPic":"ap16a","trialNum":52,"key":"a","correct":1,"rt":632},{"slide":"test","cond":"ap","leftPic":"ap15b","rightPic":"ap15a","trialNum":53,"key":"a","correct":1,"rt":503},{"slide":"test","cond":"ss","leftPic":"ss12b","rightPic":"ss12a","trialNum":54,"key":"h","correct":1,"rt":690},{"slide":"test","cond":"ds","leftPic":"ds8b","rightPic":"ds8a","trialNum":55,"key":"h","correct":1,"rt":640},{"slide":"test","cond":"ap","leftPic":"ap14b","rightPic":"ap14a","trialNum":56,"key":"a","correct":1,"rt":661},{"slide":"test","cond":"ds","leftPic":"ds7b","rightPic":"ds7a","trialNum":57,"key":"h","correct":1,"rt":608},{"slide":"test","cond":"ds","leftPic":"ds6b","rightPic":"ds6a","trialNum":58,"key":"h","correct":1,"rt":640},{"slide":"test","cond":"ap","leftPic":"ap13b","rightPic":"ap13a","trialNum":59,"key":"a","correct":1,"rt":585},{"slide":"test","cond":"ss","leftPic":"ss11b","rightPic":"ss11a","trialNum":60,"key":"h","correct":1,"rt":596},{"slide":"test","cond":"ds","leftPic":"ds5b","rightPic":"ds5a","trialNum":61,"key":"h","correct":1,"rt":544},{"slide":"test","cond":"ds","leftPic":"ds4b","rightPic":"ds4a","trialNum":62,"key":"h","correct":1,"rt":561},{"slide":"test","cond":"ap","leftPic":"ap12b","rightPic":"ap12a","trialNum":63,"key":"a","correct":1,"rt":708},{"slide":"test","cond":"ds","leftPic":"ds3b","rightPic":"ds3a","trialNum":64,"key":"h","correct":1,"rt":542},{"slide":"test","cond":"dd","leftPic":"dd5b","rightPic":"dd5a","trialNum":65,"key":"h","correct":1,"rt":485},{"slide":"test","cond":"ap","leftPic":"ap11b","rightPic":"ap11a","trialNum":66,"key":"a","correct":1,"rt":577},{"slide":"test","cond":"ss","leftPic":"ss10b","rightPic":"ss10a","trialNum":67,"key":"h","correct":1,"rt":462},{"slide":"test","cond":"ss","leftPic":"ss9b","rightPic":"ss9a","trialNum":68,"key":"h","correct":1,"rt":461},{"slide":"test","cond":"ap","leftPic":"ap10b","rightPic":"ap10a","trialNum":69,"key":"a","correct":1,"rt":536},{"slide":"test","cond":"ap","leftPic":"ap9b","rightPic":"ap9a","trialNum":70,"key":"a","correct":1,"rt":640},{"slide":"test","cond":"ap","leftPic":"ap8b","rightPic":"ap8a","trialNum":71,"key":"a","correct":1,"rt":654},{"slide":"test","cond":"dd","leftPic":"dd4b","rightPic":"dd4a","trialNum":72,"key":"h","correct":1,"rt":647},{"slide":"test","cond":"dd","leftPic":"dd3b","rightPic":"dd3a","trialNum":73,"key":"h","correct":1,"rt":486},{"slide":"test","cond":"ds","leftPic":"ds2b","rightPic":"ds2a","trialNum":74,"key":"h","correct":1,"rt":479},{"slide":"test","cond":"ss","leftPic":"ss8b","rightPic":"ss8a","trialNum":75,"key":"h","correct":1,"rt":476},{"slide":"test","cond":"ap","leftPic":"ap7b","rightPic":"ap7a","trialNum":76,"key":"a","correct":1,"rt":590},{"slide":"test","cond":"ss","leftPic":"ss7b","rightPic":"ss7a","trialNum":77,"key":"h","correct":1,"rt":634},{"slide":"test","cond":"ap","leftPic":"ap6b","rightPic":"ap6a","trialNum":78,"key":"a","correct":1,"rt":642},{"slide":"test","cond":"dd","leftPic":"dd2b","rightPic":"dd2a","trialNum":79,"key":"h","correct":1,"rt":621},{"slide":"test","cond":"ap","leftPic":"ap5b","rightPic":"ap5a","trialNum":80,"key":"a","correct":1,"rt":643},{"slide":"test","cond":"ss","leftPic":"ss6b","rightPic":"ss6a","trialNum":81,"key":"h","correct":1,"rt":625},{"slide":"test","cond":"ap","leftPic":"ap4b","rightPic":"ap4a","trialNum":82,"key":"a","correct":1,"rt":617},{"slide":"test","cond":"ss","leftPic":"ss5b","rightPic":"ss5a","trialNum":83,"key":"h","correct":1,"rt":631},{"slide":"test","cond":"ss","leftPic":"ss4b","rightPic":"ss4a","trialNum":84,"key":"h","correct":1,"rt":507},{"slide":"test","cond":"dd","leftPic":"dd1b","rightPic":"dd1a","trialNum":85,"key":"h","correct":1,"rt":722},{"slide":"test","cond":"ap","leftPic":"ap3b","rightPic":"ap3a","trialNum":86,"key":"a","correct":1,"rt":596},{"slide":"test","cond":"ss","leftPic":"ss3b","rightPic":"ss3a","trialNum":87,"key":"h","correct":1,"rt":631},{"slide":"test","cond":"ap","leftPic":"ap2b","rightPic":"ap2a","trialNum":88,"key":"a","correct":1,"rt":669},{"slide":"test","cond":"ds","leftPic":"ds1b","rightPic":"ds1a","trialNum":89,"key":"h","correct":1,"rt":626},{"slide":"test","cond":"ss","leftPic":"ss2b","rightPic":"ss2a","trialNum":90,"key":"h","correct":1,"rt":507},{"slide":"test","cond":"ss","leftPic":"ss1b","rightPic":"ss1a","trialNum":91,"key":"h","correct":1,"rt":582},{"slide":"test","cond":"ap","leftPic":"ap1b","rightPic":"ap1a","trialNum":92,"key":"a","correct":1,"rt":558}]