[{"slide":"test","cond":"ss","leftPic":"ss1a","rightPic":"ss1b","trialNum":1,"key":"h","correct":1,"rt":1980},{"slide":"test","cond":"ap","leftPic":"ap1a","rightPic":"ap1b","trialNum":2,"key":"a","correct":1,"rt":2332},{"slide":"test","cond":"ds","leftPic":"ds1a","rightPic":"ds1b","trialNum":3,"key":"h","correct":1,"rt":1448},{"slide":"test","cond":"ap","leftPic":"ap2a","rightPic":"ap2b","trialNum":4,"key":"a","correct":1,"rt":999},{"slide":"test","cond":"ss","leftPic":"ss2a","rightPic":"ss2b","trialNum":5,"key":"h","correct":1,"rt":1208},{"slide":"test","cond":"ds","leftPic":"ds2a","rightPic":"ds2b","trialNum":6,"key":"h","correct":1,"rt":1086},{"slide":"test","cond":"ap","leftPic":"ap3a","rightPic":"ap3b","trialNum":7,"key":"a","correct":1,"rt":1079},{"slide":"test","cond":"ds","leftPic":"ds3a","rightPic":"ds3b","trialNum":8,"key":"h","correct":1,"rt":1475},{"slide":"test","cond":"ap","leftPic":"ap4a","rightPic":"ap4b","trialNum":9,"key":"a","correct":1,"rt":1183},{"slide":"test","cond":"ap","leftPic":"ap5a","rightPic":"ap5b","trialNum":10,"key":"a","correct":1,"rt":839},{"slide":"test","cond":"ds","leftPic":"ds4a","rightPic":"ds4b","trialNum":11,"key":"h","correct":1,"rt":2517},{"slide":"test","cond":"dd","leftPic":"dd1a","rightPic":"dd1b","trialNum":12,"key":"h","correct":1,"rt":1380},{"slide":"test","cond":"dd","leftPic":"dd2a","rightPic":"dd2b","trialNum":13,"key":"h","correct":1,"rt":1561},{"slide":"test","cond":"ds","leftPic":"ds5a","rightPic":"ds5b","trialNum":14,"key":"h","correct":1,"rt":2046},{"slide":"test","cond":"dd","leftPic":"dd3a","rightPic":"dd3b","trialNum":15,"key":"h","correct":1,"rt":1139},{"slide":"test","cond":"ss","leftPic":"ss3a","rightPic":"ss3b","trialNum":16,"key":"h","correct":1,"rt":1012},{"slide":"test","cond":"ds","leftPic":"ds6a","rightPic":"ds6b","trialNum":17,"key":"h","correct":1,"rt":729},{"slide":"test","cond":"ss","leftPic":"ss4a","rightPic":"ss4b","trialNum":18,"key":"h","correct":1,"rt":710},{"slide":"test","cond":"ds","leftPic":"ds7a","rightPic":"ds7b","trialNum":19,"key":"h","correct":1,"rt":719},{"slide":"test","cond":"dd","leftPic":"dd4a","rightPic":"dd4b","trialNum":20,"key":"h","correct":1,"rt":844},{"slide":"test","cond":"dd","leftPic":"dd5a","rightPic":"dd5b","trialNum":21,"key":"h","correct":1,"rt":668},{"slide":"test","cond":"ap","leftPic":"ap6a","rightPic":"ap6b","trialNum":22,"key":"a","correct":1,"rt":1335},{"slide":"test","cond":"ss","leftPic":"ss5a","rightPic":"ss5b","trialNum":23,"key":"h","correct":1,"rt":1502},{"slide":"test","cond":"ds","leftPic":"ds8a","rightPic":"ds8b","trialNum":24,"key":"h","correct":1,"rt":1015},{"slide":"test","cond":"ss","leftPic":"ss6a","rightPic":"ss6b","trialNum":25,"key":"h","correct":1,"rt":900},{"slide":"test","cond":"ap","leftPic":"ap7a","rightPic":"ap7b","trialNum":26,"key":"a","correct":1,"rt":1567},{"slide":"test","cond":"ss","leftPic":"ss7a","rightPic":"ss7b","trialNum":27,"key":"h","correct":1,"rt":1900},{"slide":"test","cond":"dd","leftPic":"dd6a","rightPic":"dd6b","trialNum":28,"key":"h","correct":1,"rt":981},{"slide":"test","cond":"ap","leftPic":"ap8a","rightPic":"ap8b","trialNum":29,"key":"a","correct":1,"rt":1654},{"slide":"test","cond":"ss","leftPic":"ss8a","rightPic":"ss8b","trialNum":30,"key":"h","correct":1,"rt":1382},{"slide":"test","cond":"ap","leftPic":"ap9a","rightPic":"ap9b","trialNum":31,"key":"a","correct":1,"rt":1543},{"slide":"test","cond":"dd","leftPic":"dd7a","rightPic":"dd7b","trialNum":32,"key":"h","correct":1,"rt":1172},{"slide":"test","cond":"dd","leftPic":"dd8a","rightPic":"dd8b","trialNum":33,"key":"h","correct":1,"rt":1547},{"slide":"test","cond":"ds","leftPic":"ds9a","rightPic":"ds9b","trialNum":34,"key":"h","correct":1,"rt":1746},{"slide":"test","cond":"ds","leftPic":"ds10a","rightPic":"ds10b","trialNum":35,"key":"h","correct":1,"rt":747},{"slide":"test","cond":"ss","leftPic":"ss9a","rightPic":"ss9b","trialNum":36,"key":"h","correct":1,"rt":856},{"slide":"test","cond":"ap","leftPic":"ap10a","rightPic":"ap10b","trialNum":37,"key":"a","correct":1,"rt":1271},{"slide":"test","cond":"dd","leftPic":"dd9a","rightPic":"dd9b","trialNum":38,"key":"h","correct":1,"rt":1023},{"slide":"test","cond":"ss","leftPic":"ss10a","rightPic":"ss10b","trialNum":39,"key":"h","correct":1,"rt":813},{"slide":"test","cond":"ap","leftPic":"ap11a","rightPic":"ap11b","trialNum":40,"key":"a","correct":1,"rt":1470},{"slide":"test","cond":"ap","leftPic":"ap12a","rightPic":"ap12b","trialNum":41,"key":"a","correct":1,"rt":1166},{"slide":"test","cond":"ss","leftPic":"ss11a","rightPic":"ss11b","trialNum":42,"key":"h","correct":1,"rt":1179},{"slide":"test","cond":"ap","leftPic":"ap13a","rightPic":"ap13b","trialNum":43,"key":"a","correct":1,"rt":1322},{"slide":"test","cond":"ss","leftPic":"ss12a","rightPic":"ss12b","trialNum":44,"key":"h","correct":1,"rt":1751},{"slide":"test","cond":"ap","leftPic":"ap14a","rightPic":"ap14b","trialNum":45,"key":"a","correct":1,"rt":1404},{"slide":"test","cond":"ap","leftPic":"ap15a","rightPic":"ap15b","trialNum":46,"key":"a","correct":1,"rt":1244},{"slide":"test","cond":"ap","leftPic":"ap16a","rightPic":"ap16b","trialNum":47,"key":"a","correct":1,"rt":1163},{"slide":"test","cond":"dd","leftPic":"dd10a","rightPic":"dd10b","trialNum":48,"key":"h","correct":1,"rt":1370},{"slide":"test","cond":"ap","leftPic":"ap17a","rightPic":"ap17b","trialNum":49,"key":"a","correct":1,"rt":1402},{"slide":"test","cond":"ss","leftPic":"ss13a","rightPic":"ss13b","trialNum":50,"key":"h","correct":1,"rt":1174},{"slide":"test","cond":"ap","leftPic":"ap18a","rightPic":"ap18b","trialNum":51,"key":"a","correct":1,"rt":1188},{"slide":"test","cond":"ds","leftPic":"ds11a","rightPic":"ds11b","trialNum":52,"key":"h","correct":1,"rt":1735},{"slide":"test","cond":"dd","leftPic":"dd11a","rightPic":"dd11b","trialNum":53,"key":"h","correct":1,"rt":998},{"slide":"test","cond":"dd","leftPic":"dd12a","rightPic":"dd12b","trialNum":54,"key":"h","correct":1,"rt":958},{"slide":"test","cond":"ds","leftPic":"ds12a","rightPic":"ds12b","trialNum":55,"key":"h","correct":1,"rt":831},{"slide":"test","cond":"ap","leftPic":"ap19a","rightPic":"ap19b","trialNum":56,"key":"a","correct":1,"rt":1315},{"slide":"test","cond":"dd","leftPic":"dd13a","rightPic":"dd13b","trialNum":57,"key":"h","correct":1,"rt":1126},{"slide":"test","cond":"ss","leftPic":"ss14a","rightPic":"ss14b","trialNum":58,"key":"h","correct":1,"rt":715},{"slide":"test","cond":"ds","leftPic":"ds13a","rightPic":"ds13b","trialNum":59,"key":"h","correct":1,"rt":675},{"slide":"test","cond":"dd","leftPic":"dd14a","rightPic":"dd14b","trialNum":60,"key":"h","correct":1,"rt":792},{"slide":"test","cond":"ap","leftPic":"ap20a","rightPic":"ap20b","trialNum":61,"key":"a","correct":1,"rt":1163},{"slide":"test","cond":"ds","leftPic":"ds14a","rightPic":"ds14b","trialNum":62,"key":"h","correct":1,"rt":1175},{"slide":"test","cond":"dd","leftPic":"dd15a","rightPic":"dd15b","trialNum":63,"key":"h","correct":1,"rt":920},{"slide":"test","cond":"ap","leftPic":"ap21a","rightPic":"ap21b","trialNum":64,"key":"a","correct":1,"rt":1138},{"slide":"test","cond":"ss","leftPic":"ss15a","rightPic":"ss15b","trialNum":65,"key":"h","correct":1,"rt":1051},{"slide":"test","cond":"ds","leftPic":"ds15a","rightPic":"ds15b","trialNum":66,"key":"h","correct":1,"rt":733},{"slide":"test","cond":"ds","leftPic":"ds16a","rightPic":"ds16b","trialNum":67,"key":"h","correct":1,"rt":879},{"slide":"test","cond":"ap","leftPic":"ap22a","rightPic":"ap22b","trialNum":68,"key":"a","correct":1,"rt":1164},{"slide":"test","cond":"ap","leftPic":"ap23a","rightPic":"ap23b","trialNum":69,"key":"a","correct":1,"rt":1322},{"slide":"test","cond":"ap","leftPic":"ap24a","rightPic":"ap24b","trialNum":70,"key":"a","correct":1,"rt":1057},{"slide":"test","cond":"ss","leftPic":"ss16a","rightPic":"ss16b","trialNum":71,"key":"h","correct":1,"rt":1339},{"slide":"test","cond":"ap","leftPic":"ap25a","rightPic":"ap25b","trialNum":72,"key":"a","correct":1,"rt":1187},{"slide":"test","cond":"ap","leftPic":"ap26a","rightPic":"ap26b","trialNum":73,"key":"a","correct":1,"rt":3149},{"slide":"test","cond":"ss","leftPic":"ss17a","rightPic":"ss17b","trialNum":74,"key":"h","correct":1,"rt":1135},{"slide":"test","cond":"ap","leftPic":"ap27a","rightPic":"ap27b","trialNum":75,"key":"a","correct":1,"rt":1721},{"slide":"test","cond":"ss","leftPic":"ss18a","rightPic":"ss18b","trialNum":76,"key":"h","correct":1,"rt":2002},{"slide":"test","cond":"dd","leftPic":"dd16a","rightPic":"dd16b","trialNum":77,"key":"h","correct":1,"rt":1000},{"slide":"test","cond":"dd","leftPic":"dd17a","rightPic":"dd17b","trialNum":78,"key":"h","correct":1,"rt":969},{"slide":"test","cond":"dd","leftPic":"dd18a","rightPic":"dd18b","trialNum":79,"key":"h","correct":1,"rt":890},{"slide":"test","cond":"ds","leftPic":"ds17a","rightPic":"ds17b","trialNum":80,"key":"h","correct":1,"rt":780},{"slide":"test","cond":"ds","leftPic":"ds18a","rightPic":"ds18b","trialNum":81,"key":"h","correct":1,"rt":776},{"slide":"test","cond":"ds","leftPic":"ds19a","rightPic":"ds19b","trialNum":82,"key":"h","correct":1,"rt":763},{"slide":"test","cond":"ap","leftPic":"ap28a","rightPic":"ap28b","trialNum":83,"key":"a","correct":1,"rt":1391},{"slide":"test","cond":"ap","leftPic":"ap29a","rightPic":"ap29b","trialNum":84,"key":"a","correct":1,"rt":1118},{"slide":"test","cond":"ss","leftPic":"ss19a","rightPic":"ss19b","trialNum":85,"key":"h","correct":1,"rt":969},{"slide":"test","cond":"ap","leftPic":"ap30a","rightPic":"ap30b","trialNum":86,"key":"a","correct":1,"rt":1263},{"slide":"test","cond":"dd","leftPic":"dd19a","rightPic":"dd19b","trialNum":87,"key":"h","correct":1,"rt":2842},{"slide":"test","cond":"ds","leftPic":"ds20a","rightPic":"ds20b","trialNum":88,"key":"h","correct":1,"rt":1029},{"slide":"test","cond":"ap","leftPic":"ap31a","rightPic":"ap31b","trialNum":89,"key":"a","correct":1,"rt":1372},{"slide":"test","cond":"ss","leftPic":"ss20a","rightPic":"ss20b","trialNum":90,"key":"h","correct":1,"rt":1601},{"slide":"test","cond":"ap","leftPic":"ap32a","rightPic":"ap32b","trialNum":91,"key":"a","correct":1,"rt":1315},{"slide":"test","cond":"dd","leftPic":"dd20a","rightPic":"dd20b","trialNum":92,"key":"h","correct":1,"rt":1312}]