[{"slide":"test","cond":"ap","leftPic":"ap32b","rightPic":"ap32a","trialNum":1,"key":"a","correct":1,"rt":1146},{"slide":"test","cond":"dd","leftPic":"dd20b","rightPic":"dd20a","trialNum":2,"key":"h","correct":1,"rt":1275},{"slide":"test","cond":"ap","leftPic":"ap31b","rightPic":"ap31a","trialNum":3,"key":"a","correct":1,"rt":1108},{"slide":"test","cond":"ap","leftPic":"ap30b","rightPic":"ap30a","trialNum":4,"key":"a","correct":1,"rt":1254},{"slide":"test","cond":"dd","leftPic":"dd19b","rightPic":"dd19a","trialNum":5,"key":"h","correct":1,"rt":1163},{"slide":"test","cond":"dd","leftPic":"dd18b","rightPic":"dd18a","trialNum":6,"key":"h","correct":1,"rt":1180},{"slide":"test","cond":"ds","leftPic":"ds20b","rightPic":"ds20a","trialNum":7,"key":"h","correct":1,"rt":1214},{"slide":"test","cond":"ap","leftPic":"ap29b","rightPic":"ap29a","trialNum":8,"key":"a","correct":1,"rt":1116},{"slide":"test","cond":"ap","leftPic":"ap28b","rightPic":"ap28a","trialNum":9,"key":"a","correct":1,"rt":1133},{"slide":"test","cond":"ss","leftPic":"ss20b","rightPic":"ss20a","trialNum":10,"key":"h","correct":1,"rt":1128},{"slide":"test","cond":"ss","leftPic":"ss19b","rightPic":"ss19a","trialNum":11,"key":"h","correct":1,"rt":1290},{"slide":"test","cond":"ds","leftPic":"ds19b","rightPic":"ds19a","trialNum":12,"key":"h","correct":1,"rt":1301},{"slide":"test","cond":"ds","leftPic":"ds18b","rightPic":"ds18a","trialNum":13,"key":"h","correct":1,"rt":985},{"slide":"test","cond":"dd","leftPic":"dd17b","rightPic":"dd17a","trialNum":14,"key":"h","correct":1,"rt":965},{"slide":"test","cond":"ap","leftPic":"ap27b","rightPic":"ap27a","trialNum":15,"key":"a","correct":1,"rt":1068},{"slide":"test","cond":"dd","leftPic":"dd16b","rightPic":"dd16a","trialNum":16,"key":"h","correct":1,"rt":978},{"slide":"test","cond":"dd","leftPic":"dd15b","rightPic":"dd15a","trialNum":17,"key":"h","correct":1,"rt":615},{"slide":"test","cond":"ss","leftPic":"ss18b","rightPic":"ss18a","trialNum":18,"key":"h","correct":1,"rt":743},{"slide":"test","cond":"ds","leftPic":"ds17b","rightPic":"ds17a","trialNum":19,"key":"h","correct":1,"rt":647},{"slide":"test","cond":"ap","leftPic":"ap26b","rightPic":"ap26a","trialNum":20,"key":"a","correct":1,"rt":1039},{"slide":"test","cond":"ap","leftPic":"ap25b","rightPic":"ap25a","trialNum":21,"key":"a","correct":1,"rt":1034},{"slide":"test","cond":"ds","leftPic":"ds16b","rightPic":"ds16a","trialNum":22,"key":"h","correct":1,"rt":1055},{"slide":"test","cond":"ap","leftPic":"ap24b","rightPic":"ap24a","trialNum":23,"key":"a","correct":1,"rt":1110},{"slide":"test","cond":"dd","leftPic":"dd14b","rightPic":"dd14a","trialNum":24,"key":"h","correct":1,"rt":1053},{"slide":"test","cond":"ss","leftPic":"ss17b","rightPic":"ss17a","trialNum":25,"key":"h","correct":1,"rt":606},{"slide":"test","cond":"ap","leftPic":"ap23b","rightPic":"ap23a","trialNum":26,"key":"a","correct":1,"rt":1084},{"slide":"test","cond":"ds","leftPic":"ds15b","rightPic":"ds15a","trialNum":27,"key":"h","correct":1,"rt":1152},{"slide":"test","cond":"ds","leftPic":"ds14b","rightPic":"ds14a","trialNum":28,"key":"h","correct":1,"rt":651},{"slide":"test","cond":"ds","leftPic":"ds13b","rightPic":"ds13a","trialNum":29,"key":"h","correct":1,"rt":567},{"slide":"test","cond":"dd","leftPic":"dd13b","rightPic":"dd13a","trialNum":30,"key":"h","correct":1,"rt":521},{"slide":"test","cond":"dd","leftPic":"dd12b","rightPic":"dd12a","trialNum":31,"key":"h","correct":1,"rt":608},{"slide":"test","cond":"ds","leftPic":"ds12b","rightPic":"ds12a","trialNum":32,"key":"h","correct":1,"rt":649},{"slide":"test","cond":"ap","leftPic":"ap22b","rightPic":"ap22a","trialNum":33,"key":"a","correct":1,"rt":1042},{"slide":"test","cond":"ss","leftPic":"ss16b","rightPic":"ss16a","trialNum":34,"key":"h","correct":1,"rt":913},{"slide":"test","cond":"dd","leftPic":"dd11b","rightPic":"dd11a","trialNum":35,"key":"h","correct":1,"rt":555},{"slide":"test","cond":"ss","leftPic":"ss15b","rightPic":"ss15a","trialNum":36,"key":"h","correct":1,"rt":583},{"slide":"test","cond":"dd","leftPic":"dd10b","rightPic":"dd10a","trialNum":37,"key":"h","correct":1,"rt":799},{"slide":"test","cond":"ap","leftPic":"ap21b","rightPic":"ap21a","trialNum":38,"key":"a","correct":1,"rt":1170},{"slide":"test","cond":"ap","leftPic":"ap20b","rightPic":"ap20a","trialNum":39,"key":"a","correct":1,"rt":680},{"slide":"test","cond":"ss","leftPic":"ss14b","rightPic":"ss14a","trialNum":40,"key":"h","correct":1,"rt":990},{"slide":"test","cond":"ss","leftPic":"ss13b","rightPic":"ss13a","trialNum":41,"key":"h","correct":1,"rt":657},{"slide":"test","cond":"ss","leftPic":"ss12b","rightPic":"ss12a","trialNum":42,"key":"h","correct":1,"rt":595},{"slide":"test","cond":"ds","leftPic":"ds11b","rightPic":"ds11a","trialNum":43,"key":"h","correct":1,"rt":563},{"slide":"test","cond":"ds","leftPic":"ds10b","rightPic":"ds10a","trialNum":44,"key":"h","correct":1,"rt":530},{"slide":"test","cond":"ap","leftPic":"ap19b","rightPic":"ap19a","trialNum":45,"key":"a","correct":1,"rt":1052},{"slide":"test","cond":"ss","leftPic":"ss11b","rightPic":"ss11a","trialNum":46,"key":"h","correct":1,"rt":898},{"slide":"test","cond":"dd","leftPic":"dd9b","rightPic":"dd9a","trialNum":47,"key":"h","correct":1,"rt":553},{"slide":"test","cond":"ss","leftPic":"ss10b","rightPic":"ss10a","trialNum":48,"key":"h","correct":1,"rt":574},{"slide":"test","cond":"dd","leftPic":"dd8b","rightPic":"dd8a","trialNum":49,"key":"h","correct":1,"rt":552},{"slide":"test","cond":"ss","leftPic":"ss9b","rightPic":"ss9a","trialNum":50,"key":"h","correct":1,"rt":479},{"slide":"test","cond":"dd","leftPic":"dd7b","rightPic":"dd7a","trialNum":51,"key":"h","correct":1,"rt":616},{"slide":"test","cond":"ap","leftPic":"ap18b","rightPic":"ap18a","trialNum":52,"key":"a","correct":1,"rt":1072},{"slide":"test","cond":"ap","leftPic":"ap17b","rightPic":"ap17a","trialNum":53,"key":"a","correct":1,"rt":727},{"slide":"test","cond":"ap","leftPic":"ap16b","rightPic":"ap16a","trialNum":54,"key":"a","correct":1,"rt":737},{"slide":"test","cond":"dd","leftPic":"dd6b","rightPic":"dd6a","trialNum":55,"key":"h","correct":1,"rt":1091},{"slide":"test","cond":"ap","leftPic":"ap15b","rightPic":"ap15a","trialNum":56,"key":"a","correct":1,"rt":1088},{"slide":"test","cond":"ap","leftPic":"ap14b","rightPic":"ap14a","trialNum":57,"key":"a","correct":1,"rt":753},{"slide":"test","cond":"ds","leftPic":"ds9b","rightPic":"ds9a","trialNum":58,"key":"h","correct":1,"rt":1141},{"slide":"test","cond":"ss","leftPic":"ss8b","rightPic":"ss8a","trialNum":59,"key":"h","correct":1,"rt":639},{"slide":"test","cond":"dd","leftPic":"dd5b","rightPic":"dd5a","trialNum":60,"key":"h","correct":1,"rt":669},{"slide":"test","cond":"dd","leftPic":"dd4b","rightPic":"dd4a","trialNum":61,"key":"h","correct":1,"rt":725},{"slide":"test","cond":"ap","leftPic":"ap13b","rightPic":"ap13a","trialNum":62,"key":"a","correct":1,"rt":1093},{"slide":"test","cond":"dd","leftPic":"dd3b","rightPic":"dd3a","trialNum":63,"key":"h","correct":1,"rt":1014},{"slide":"test","cond":"ss","leftPic":"ss7b","rightPic":"ss7a","trialNum":64,"key":"h","correct":1,"rt":846},{"slide":"test","cond":"ap","leftPic":"ap12b","rightPic":"ap12a","trialNum":65,"key":"a","correct":1,"rt":1082},{"slide":"test","cond":"ap","leftPic":"ap11b","rightPic":"ap11a","trialNum":66,"key":"a","correct":1,"rt":764},{"slide":"test","cond":"ss","leftPic":"ss6b","rightPic":"ss6a","trialNum":67,"key":"h","correct":1,"rt":1101},{"slide":"test","cond":"ap","leftPic":"ap10b","rightPic":"ap10a","trialNum":68,"key":"a","correct":1,"rt":1139},{"slide":"test","cond":"ss","leftPic":"ss5b","rightPic":"ss5a","trialNum":69,"key":"h","correct":1,"rt":911},{"slide":"test","cond":"ap","leftPic":"ap9b","rightPic":"ap9a","trialNum":70,"key":"a","correct":1,"rt":1132},{"slide":"test","cond":"ds","leftPic":"ds8b","rightPic":"ds8a","trialNum":71,"key":"h","correct":1,"rt":951},{"slide":"test","cond":"ss","leftPic":"ss4b","rightPic":"ss4a","trialNum":72,"key":"h","correct":1,"rt":614},{"slide":"test","cond":"ds","leftPic":"ds7b","rightPic":"ds7a","trialNum":73,"key":"h","correct":1,"rt":673},{"slide":"test","cond":"dd","leftPic":"dd2b","rightPic":"dd2a","trialNum":74,"key":"h","correct":1,"rt":646},{"slide":"test","cond":"ss","leftPic":"ss3b","rightPic":"ss3a","trialNum":75,"key":"h","correct":1,"rt":695},{"slide":"test","cond":"ss","leftPic":"ss2b","rightPic":"ss2a","trialNum":76,"key":"h","correct":1,"rt":648},{"slide":"test","cond":"ds","leftPic":"ds6b","rightPic":"ds6a","trialNum":77,"key":"h","correct":1,"rt":548},{"slide":"test","cond":"ap","leftPic":"ap8b","rightPic":"ap8a","trialNum":78,"key":"a","correct":1,"rt":1023},{"slide":"test","cond":"ds","leftPic":"ds5b","rightPic":"ds5a","trialNum":79,"key":"h","correct":1,"rt":978},{"slide":"test","cond":"ds","leftPic":"ds4b","rightPic":"ds4a","trialNum":80,"key":"h","correct":1,"rt":854},{"slide":"test","cond":"ap","leftPic":"ap7b","rightPic":"ap7a","trialNum":81,"key":"a","correct":1,"rt":1123},{"slide":"test","cond":"ds","leftPic":"ds3b","rightPic":"ds3a","trialNum":82,"key":"h","correct":1,"rt":978},{"slide":"test","cond":"ap","leftPic":"ap6b","rightPic":"ap6a","trialNum":83,"key":"a","correct":1,"rt":967},{"slide":"test","cond":"ap","leftPic":"ap5b","rightPic":"ap5a","trialNum":84,"key":"a","correct":1,"rt":706},{"slide":"test","cond":"ap","leftPic":"ap4b","rightPic":"ap4a","trialNum":85,"key":"a","correct":1,"rt":714},{"slide":"test","cond":"ap","leftPic":"ap3b","rightPic":"ap3a","trialNum":86,"key":"a","correct":1,"rt":655},{"slide":"test","cond":"ds","leftPic":"ds2b","rightPic":"ds2a","trialNum":87,"key":"h","correct":1,"rt":1011},{"slide":"test","cond":"ds","leftPic":"ds1b","rightPic":"ds1a","trialNum":88,"key":"h","correct":1,"rt":627},{"slide":"test","cond":"dd","leftPic":"dd1b","rightPic":"dd1a","trialNum":89,"key":"h","correct":1,"rt":727},{"slide":"test","cond":"ap","leftPic":"ap2b","rightPic":"ap2a","trialNum":90,"key":"a","correct":1,"rt":1146},{"slide":"test","cond":"ss","leftPic":"ss1b","rightPic":"ss1a","trialNum":91,"key":"h","correct":1,"rt":924},{"slide":"test","cond":"ap","leftPic":"ap1b","rightPic":"ap1a","trialNum":92,"key":"a","correct":1,"rt":991}]