[{"slide":"test","cond":"ap","leftPic":"ap32b","rightPic":"ap32a","trialNum":1,"key":"a","correct":1,"rt":2189},{"slide":"test","cond":"ds","leftPic":"ds20b","rightPic":"ds20a","trialNum":2,"key":"h","correct":1,"rt":3093},{"slide":"test","cond":"ss","leftPic":"ss20b","rightPic":"ss20a","trialNum":3,"key":"h","correct":1,"rt":2081},{"slide":"test","cond":"dd","leftPic":"dd20b","rightPic":"dd20a","trialNum":4,"key":"h","correct":1,"rt":1292},{"slide":"test","cond":"ap","leftPic":"ap31b","rightPic":"ap31a","trialNum":5,"key":"a","correct":1,"rt":1045},{"slide":"test","cond":"ds","leftPic":"ds19b","rightPic":"ds19a","trialNum":6,"key":"h","correct":1,"rt":968},{"slide":"test","cond":"ds","leftPic":"ds18b","rightPic":"ds18a","trialNum":7,"key":"h","correct":1,"rt":954},{"slide":"test","cond":"dd","leftPic":"dd19b","rightPic":"dd19a","trialNum":8,"key":"h","correct":1,"rt":2066},{"slide":"test","cond":"ds","leftPic":"ds17b","rightPic":"ds17a","trialNum":9,"key":"h","correct":1,"rt":3720},{"slide":"test","cond":"ds","leftPic":"ds16b","rightPic":"ds16a","trialNum":10,"key":"h","correct":1,"rt":1484},{"slide":"test","cond":"ap","leftPic":"ap30b","rightPic":"ap30a","trialNum":11,"key":"a","correct":1,"rt":1260},{"slide":"test","cond":"dd","leftPic":"dd18b","rightPic":"dd18a","trialNum":12,"key":"h","correct":1,"rt":1260},{"slide":"test","cond":"dd","leftPic":"dd17b","rightPic":"dd17a","trialNum":13,"key":"h","correct":1,"rt":1140},{"slide":"test","cond":"ds","leftPic":"ds15b","rightPic":"ds15a","trialNum":14,"key":"h","correct":1,"rt":1281},{"slide":"test","cond":"ap","leftPic":"ap29b","rightPic":"ap29a","trialNum":15,"key":"a","correct":1,"rt":1174},{"slide":"test","cond":"ap","leftPic":"ap28b","rightPic":"ap28a","trialNum":16,"key":"a","correct":1,"rt":1016},{"slide":"test","cond":"ap","leftPic":"ap27b","rightPic":"ap27a","trialNum":17,"key":"a","correct":1,"rt":985},{"slide":"test","cond":"ds","leftPic":"ds14b","rightPic":"ds14a","trialNum":18,"key":"h","correct":1,"rt":1036},{"slide":"test","cond":"ss","leftPic":"ss19b","rightPic":"ss19a","trialNum":19,"key":"h","correct":1,"rt":838},{"slide":"test","cond":"ap","leftPic":"ap26b","rightPic":"ap26a","trialNum":20,"key":"a","correct":1,"rt":1006},{"slide":"test","cond":"ss","leftPic":"ss18b","rightPic":"ss18a","trialNum":21,"key":"h","correct":1,"rt":851},{"slide":"test","cond":"ap","leftPic":"ap25b","rightPic":"ap25a","trialNum":22,"key":"a","correct":1,"rt":1016},{"slide":"test","cond":"ss","leftPic":"ss17b","rightPic":"ss17a","trialNum":23,"key":"h","correct":1,"rt":877},{"slide":"test","cond":"dd","leftPic":"dd16b","rightPic":"dd16a","trialNum":24,"key":"h","correct":1,"rt":907},{"slide":"test","cond":"ds","leftPic":"ds13b","rightPic":"ds13a","trialNum":25,"key":"h","correct":1,"rt":860},{"slide":"test","cond":"dd","leftPic":"dd15b","rightPic":"dd15a","trialNum":26,"key":"h","correct":1,"rt":828},{"slide":"test","cond":"ss","leftPic":"ss16b","rightPic":"ss16a","trialNum":27,"key":"h","correct":1,"rt":1368},{"slide":"test","cond":"ap","leftPic":"ap24b","rightPic":"ap24a","trialNum":28,"key":"a","correct":1,"rt":871},{"slide":"test","cond":"ds","leftPic":"ds12b","rightPic":"ds12a","trialNum":29,"key":"h","correct":1,"rt":848},{"slide":"test","cond":"ss","leftPic":"ss15b","rightPic":"ss15a","trialNum":30,"key":"h","correct":1,"rt":889},{"slide":"test","cond":"ap","leftPic":"ap23b","rightPic":"ap23a","trialNum":31,"key":"a","correct":1,"rt":1232},{"slide":"test","cond":"ap","leftPic":"ap22b","rightPic":"ap22a","trialNum":32,"key":"a","correct":1,"rt":977},{"slide":"test","cond":"ap","leftPic":"ap21b","rightPic":"ap21a","trialNum":33,"key":"a","correct":1,"rt":1076},{"slide":"test","cond":"dd","leftPic":"dd14b","rightPic":"dd14a","trialNum":34,"key":"h","correct":1,"rt":1079},{"slide":"test","cond":"ap","leftPic":"ap20b","rightPic":"ap20a","trialNum":35,"key":"a","correct":1,"rt":1120},{"slide":"test","cond":"ap","leftPic":"ap19b","rightPic":"ap19a","trialNum":36,"key":"a","correct":1,"rt":7359},{"slide":"test","cond":"dd","leftPic":"dd13b","rightPic":"dd13a","trialNum":37,"key":"h","correct":1,"rt":858},{"slide":"test","cond":"ds","leftPic":"ds11b","rightPic":"ds11a","trialNum":38,"key":"h","correct":1,"rt":1051},{"slide":"test","cond":"ap","leftPic":"ap18b","rightPic":"ap18a","trialNum":39,"key":"a","correct":1,"rt":1183},{"slide":"test","cond":"ap","leftPic":"ap17b","rightPic":"ap17a","trialNum":40,"key":"a","correct":1,"rt":1015},{"slide":"test","cond":"ap","leftPic":"ap16b","rightPic":"ap16a","trialNum":41,"key":"a","correct":1,"rt":1572},{"slide":"test","cond":"ds","leftPic":"ds10b","rightPic":"ds10a","trialNum":42,"key":"h","correct":1,"rt":1298},{"slide":"test","cond":"ss","leftPic":"ss14b","rightPic":"ss14a","trialNum":43,"key":"h","correct":1,"rt":849},{"slide":"test","cond":"dd","leftPic":"dd12b","rightPic":"dd12a","trialNum":44,"key":"h","correct":1,"rt":931},{"slide":"test","cond":"ss","leftPic":"ss13b","rightPic":"ss13a","trialNum":45,"key":"h","correct":1,"rt":896},{"slide":"test","cond":"ap","leftPic":"ap15b","rightPic":"ap15a","trialNum":46,"key":"a","correct":1,"rt":995},{"slide":"test","cond":"ap","leftPic":"ap14b","rightPic":"ap14a","trialNum":47,"key":"a","correct":1,"rt":968},{"slide":"test","cond":"ap","leftPic":"ap13b","rightPic":"ap13a","trialNum":48,"key":"a","correct":1,"rt":1081},{"slide":"test","cond":"ds","leftPic":"ds9b","rightPic":"ds9a","trialNum":49,"key":"h","correct":1,"rt":781},{"slide":"test","cond":"ss","leftPic":"ss12b","rightPic":"ss12a","trialNum":50,"key":"h","correct":1,"rt":793},{"slide":"test","cond":"ss","leftPic":"ss11b","rightPic":"ss11a","trialNum":51,"key":"h","correct":1,"rt":563},{"slide":"test","cond":"ap","leftPic":"ap12b","rightPic":"ap12a","trialNum":52,"key":"a","correct":1,"rt":637},{"slide":"test","cond":"ds","leftPic":"ds8b","rightPic":"ds8a","trialNum":53,"key":"h","correct":1,"rt":681},{"slide":"test","cond":"ds","leftPic":"ds7b","rightPic":"ds7a","trialNum":54,"key":"h","correct":1,"rt":818},{"slide":"test","cond":"dd","leftPic":"dd11b","rightPic":"dd11a","trialNum":55,"key":"h","correct":1,"rt":1079},{"slide":"test","cond":"ap","leftPic":"ap11b","rightPic":"ap11a","trialNum":56,"key":"a","correct":1,"rt":907},{"slide":"test","cond":"ds","leftPic":"ds6b","rightPic":"ds6a","trialNum":57,"key":"h","correct":1,"rt":825},{"slide":"test","cond":"ss","leftPic":"ss10b","rightPic":"ss10a","trialNum":58,"key":"h","correct":1,"rt":752},{"slide":"test","cond":"ss","leftPic":"ss9b","rightPic":"ss9a","trialNum":59,"key":"h","correct":1,"rt":720},{"slide":"test","cond":"dd","leftPic":"dd10b","rightPic":"dd10a","trialNum":60,"key":"h","correct":1,"rt":831},{"slide":"test","cond":"dd","leftPic":"dd9b","rightPic":"dd9a","trialNum":61,"key":"h","correct":1,"rt":724},{"slide":"test","cond":"dd","leftPic":"dd8b","rightPic":"dd8a","trialNum":62,"key":"h","correct":1,"rt":878},{"slide":"test","cond":"dd","leftPic":"dd7b","rightPic":"dd7a","trialNum":63,"key":"h","correct":1,"rt":881},{"slide":"test","cond":"dd","leftPic":"dd6b","rightPic":"dd6a","trialNum":64,"key":"h","correct":1,"rt":998},{"slide":"test","cond":"ds","leftPic":"ds5b","rightPic":"ds5a","trialNum":65,"key":"h","correct":1,"rt":879},{"slide":"test","cond":"ss","leftPic":"ss8b","rightPic":"ss8a","trialNum":66,"key":"h","correct":1,"rt":1068},{"slide":"test","cond":"ss","leftPic":"ss7b","rightPic":"ss7a","trialNum":67,"key":"h","correct":1,"rt":1109},{"slide":"test","cond":"dd","leftPic":"dd5b","rightPic":"dd5a","trialNum":68,"key":"h","correct":1,"rt":1414},{"slide":"test","cond":"ds","leftPic":"ds4b","rightPic":"ds4a","trialNum":69,"key":"h","correct":1,"rt":2493},{"slide":"test","cond":"dd","leftPic":"dd4b","rightPic":"dd4a","trialNum":70,"key":"h","correct":1,"rt":1158},{"slide":"test","cond":"ss","leftPic":"ss6b","rightPic":"ss6a","trialNum":71,"key":"h","correct":1,"rt":1175},{"slide":"test","cond":"ap","leftPic":"ap10b","rightPic":"ap10a","trialNum":72,"key":"a","correct":1,"rt":1141},{"slide":"test","cond":"ap","leftPic":"ap9b","rightPic":"ap9a","trialNum":73,"key":"a","correct":1,"rt":1014},{"slide":"test","cond":"dd","leftPic":"dd3b","rightPic":"dd3a","trialNum":74,"key":"h","correct":1,"rt":1150},{"slide":"test","cond":"ss","leftPic":"ss5b","rightPic":"ss5a","trialNum":75,"key":"h","correct":1,"rt":1161},{"slide":"test","cond":"ap","leftPic":"ap8b","rightPic":"ap8a","trialNum":76,"key":"a","correct":1,"rt":1345},{"slide":"test","cond":"dd","leftPic":"dd2b","rightPic":"dd2a","trialNum":77,"key":"h","correct":1,"rt":1124},{"slide":"test","cond":"ap","leftPic":"ap7b","rightPic":"ap7a","trialNum":78,"key":"a","correct":1,"rt":1032},{"slide":"test","cond":"ds","leftPic":"ds3b","rightPic":"ds3a","trialNum":79,"key":"h","correct":1,"rt":957},{"slide":"test","cond":"ap","leftPic":"ap6b","rightPic":"ap6a","trialNum":80,"key":"a","correct":1,"rt":955},{"slide":"test","cond":"ap","leftPic":"ap5b","rightPic":"ap5a","trialNum":81,"key":"a","correct":1,"rt":1007},{"slide":"test","cond":"dd","leftPic":"dd1b","rightPic":"dd1a","trialNum":82,"key":"h","correct":1,"rt":965},{"slide":"test","cond":"ss","leftPic":"ss4b","rightPic":"ss4a","trialNum":83,"key":"h","correct":1,"rt":944},{"slide":"test","cond":"ds","leftPic":"ds2b","rightPic":"ds2a","trialNum":84,"key":"h","correct":1,"rt":1039},{"slide":"test","cond":"ss","leftPic":"ss3b","rightPic":"ss3a","trialNum":85,"key":"h","correct":1,"rt":1061},{"slide":"test","cond":"ss","leftPic":"ss2b","rightPic":"ss2a","trialNum":86,"key":"h","correct":1,"rt":1817},{"slide":"test","cond":"ap","leftPic":"ap4b","rightPic":"ap4a","trialNum":87,"key":"a","correct":1,"rt":1234},{"slide":"test","cond":"ss","leftPic":"ss1b","rightPic":"ss1a","trialNum":88,"key":"h","correct":1,"rt":1111},{"slide":"test","cond":"ds","leftPic":"ds1b","rightPic":"ds1a","trialNum":89,"key":"h","correct":1,"rt":1158},{"slide":"test","cond":"ap","leftPic":"ap3b","rightPic":"ap3a","trialNum":90,"key":"a","correct":1,"rt":1130},{"slide":"test","cond":"ap","leftPic":"ap2b","rightPic":"ap2a","trialNum":91,"key":"a","correct":1,"rt":1467},{"slide":"test","cond":"ap","leftPic":"ap1b","rightPic":"ap1a","trialNum":92,"key":"a","correct":1,"rt":1259}]