[{"slide":"test","cond":"ds","leftPic":"ds1a","rightPic":"ds1b","trialNum":1,"key":"h","correct":1,"rt":1797},{"slide":"test","cond":"ap","leftPic":"ap1a","rightPic":"ap1b","trialNum":2,"key":"a","correct":1,"rt":995},{"slide":"test","cond":"ap","leftPic":"ap2a","rightPic":"ap2b","trialNum":3,"key":"a","correct":1,"rt":1000},{"slide":"test","cond":"ss","leftPic":"ss1a","rightPic":"ss1b","trialNum":4,"key":"h","correct":1,"rt":874},{"slide":"test","cond":"ap","leftPic":"ap3a","rightPic":"ap3b","trialNum":5,"key":"a","correct":1,"rt":995},{"slide":"test","cond":"ap","leftPic":"ap4a","rightPic":"ap4b","trialNum":6,"key":"a","correct":1,"rt":1114},{"slide":"test","cond":"ss","leftPic":"ss2a","rightPic":"ss2b","trialNum":7,"key":"h","correct":1,"rt":990},{"slide":"test","cond":"ds","leftPic":"ds2a","rightPic":"ds2b","trialNum":8,"key":"h","correct":1,"rt":913},{"slide":"test","cond":"ap","leftPic":"ap5a","rightPic":"ap5b","trialNum":9,"key":"a","correct":1,"rt":976},{"slide":"test","cond":"ds","leftPic":"ds3a","rightPic":"ds3b","trialNum":10,"key":"h","correct":1,"rt":1083},{"slide":"test","cond":"ds","leftPic":"ds4a","rightPic":"ds4b","trialNum":11,"key":"h","correct":1,"rt":782},{"slide":"test","cond":"ds","leftPic":"ds5a","rightPic":"ds5b","trialNum":12,"key":"h","correct":1,"rt":1760},{"slide":"test","cond":"dd","leftPic":"dd1a","rightPic":"dd1b","trialNum":13,"key":"h","correct":1,"rt":760},{"slide":"test","cond":"ds","leftPic":"ds6a","rightPic":"ds6b","trialNum":14,"key":"h","correct":1,"rt":1820},{"slide":"test","cond":"ds","leftPic":"ds7a","rightPic":"ds7b","trialNum":15,"key":"h","correct":1,"rt":1586},{"slide":"test","cond":"ap","leftPic":"ap6a","rightPic":"ap6b","trialNum":16,"key":"a","correct":1,"rt":863},{"slide":"test","cond":"dd","leftPic":"dd2a","rightPic":"dd2b","trialNum":17,"key":"h","correct":1,"rt":848},{"slide":"test","cond":"dd","leftPic":"dd3a","rightPic":"dd3b","trialNum":18,"key":"h","correct":1,"rt":871},{"slide":"test","cond":"ap","leftPic":"ap7a","rightPic":"ap7b","trialNum":19,"key":"a","correct":1,"rt":789},{"slide":"test","cond":"ss","leftPic":"ss3a","rightPic":"ss3b","trialNum":20,"key":"h","correct":1,"rt":953},{"slide":"test","cond":"ds","leftPic":"ds8a","rightPic":"ds8b","trialNum":21,"key":"h","correct":1,"rt":1530},{"slide":"test","cond":"dd","leftPic":"dd4a","rightPic":"dd4b","trialNum":22,"key":"h","correct":1,"rt":760},{"slide":"test","cond":"ds","leftPic":"ds9a","rightPic":"ds9b","trialNum":23,"key":"h","correct":1,"rt":1184},{"slide":"test","cond":"ss","leftPic":"ss4a","rightPic":"ss4b","trialNum":24,"key":"h","correct":1,"rt":1000},{"slide":"test","cond":"ss","leftPic":"ss5a","rightPic":"ss5b","trialNum":25,"key":"h","correct":1,"rt":3321},{"slide":"test","cond":"dd","leftPic":"dd5a","rightPic":"dd5b","trialNum":26,"key":"h","correct":1,"rt":1084},{"slide":"test","cond":"ap","leftPic":"ap8a","rightPic":"ap8b","trialNum":27,"key":"a","correct":1,"rt":831},{"slide":"test","cond":"ap","leftPic":"ap9a","rightPic":"ap9b","trialNum":28,"key":"a","correct":1,"rt":918},{"slide":"test","cond":"dd","leftPic":"dd6a","rightPic":"dd6b","trialNum":29,"key":"h","correct":1,"rt":1888},{"slide":"test","cond":"ss","leftPic":"ss6a","rightPic":"ss6b","trialNum":30,"key":"h","correct":1,"rt":1013},{"slide":"test","cond":"dd","leftPic":"dd7a","rightPic":"dd7b","trialNum":31,"key":"h","correct":1,"rt":1195},{"slide":"test","cond":"ap","leftPic":"ap10a","rightPic":"ap10b","trialNum":32,"key":"a","correct":1,"rt":845},{"slide":"test","cond":"ap","leftPic":"ap11a","rightPic":"ap11b","trialNum":33,"key":"a","correct":1,"rt":797},{"slide":"test","cond":"dd","leftPic":"dd8a","rightPic":"dd8b","trialNum":34,"key":"h","correct":1,"rt":1274},{"slide":"test","cond":"ap","leftPic":"ap12a","rightPic":"ap12b","trialNum":35,"key":"a","correct":1,"rt":845},{"slide":"test","cond":"ds","leftPic":"ds10a","rightPic":"ds10b","trialNum":36,"key":"h","correct":1,"rt":4367},{"slide":"test","cond":"ds","leftPic":"ds11a","rightPic":"ds11b","trialNum":37,"key":"h","correct":1,"rt":3275},{"slide":"test","cond":"ap","leftPic":"ap13a","rightPic":"ap13b","trialNum":38,"key":"a","correct":1,"rt":1041},{"slide":"test","cond":"ds","leftPic":"ds12a","rightPic":"ds12b","trialNum":39,"key":"h","correct":1,"rt":1701},{"slide":"test","cond":"ap","leftPic":"ap14a","rightPic":"ap14b","trialNum":40,"key":"a","correct":1,"rt":934},{"slide":"test","cond":"ds","leftPic":"ds13a","rightPic":"ds13b","trialNum":41,"key":"h","correct":1,"rt":1368},{"slide":"test","cond":"ap","leftPic":"ap15a","rightPic":"ap15b","trialNum":42,"key":"a","correct":1,"rt":885},{"slide":"test","cond":"ds","leftPic":"ds14a","rightPic":"ds14b","trialNum":43,"key":"h","correct":1,"rt":1493},{"slide":"test","cond":"ap","leftPic":"ap16a","rightPic":"ap16b","trialNum":44,"key":"a","correct":1,"rt":889},{"slide":"test","cond":"ss","leftPic":"ss7a","rightPic":"ss7b","trialNum":45,"key":"h","correct":1,"rt":2004},{"slide":"test","cond":"ap","leftPic":"ap17a","rightPic":"ap17b","trialNum":46,"key":"a","correct":1,"rt":2454},{"slide":"test","cond":"dd","leftPic":"dd9a","rightPic":"dd9b","trialNum":47,"key":"h","correct":1,"rt":1280},{"slide":"test","cond":"dd","leftPic":"dd10a","rightPic":"dd10b","trialNum":48,"key":"h","correct":1,"rt":1438},{"slide":"test","cond":"dd","leftPic":"dd11a","rightPic":"dd11b","trialNum":49,"key":"h","correct":1,"rt":1715},{"slide":"test","cond":"ds","leftPic":"ds15a","rightPic":"ds15b","trialNum":50,"key":"h","correct":1,"rt":1453},{"slide":"test","cond":"ap","leftPic":"ap18a","rightPic":"ap18b","trialNum":51,"key":"a","correct":1,"rt":1841},{"slide":"test","cond":"ss","leftPic":"ss8a","rightPic":"ss8b","trialNum":52,"key":"h","correct":1,"rt":2171},{"slide":"test","cond":"dd","leftPic":"dd12a","rightPic":"dd12b","trialNum":53,"key":"h","correct":1,"rt":1945},{"slide":"test","cond":"dd","leftPic":"dd13a","rightPic":"dd13b","trialNum":54,"key":"h","correct":1,"rt":1415},{"slide":"test","cond":"dd","leftPic":"dd14a","rightPic":"dd14b","trialNum":55,"key":"h","correct":1,"rt":1360},{"slide":"test","cond":"ds","leftPic":"ds16a","rightPic":"ds16b","trialNum":56,"key":"h","correct":1,"rt":1760},{"slide":"test","cond":"ss","leftPic":"ss9a","rightPic":"ss9b","trialNum":57,"key":"h","correct":1,"rt":1340},{"slide":"test","cond":"ap","leftPic":"ap19a","rightPic":"ap19b","trialNum":58,"key":"a","correct":1,"rt":1893},{"slide":"test","cond":"ap","leftPic":"ap20a","rightPic":"ap20b","trialNum":59,"key":"a","correct":1,"rt":2021},{"slide":"test","cond":"ss","leftPic":"ss10a","rightPic":"ss10b","trialNum":60,"key":"h","correct":1,"rt":1179},{"slide":"test","cond":"ap","leftPic":"ap21a","rightPic":"ap21b","trialNum":61,"key":"a","correct":1,"rt":1702},{"slide":"test","cond":"ss","leftPic":"ss11a","rightPic":"ss11b","trialNum":62,"key":"h","correct":1,"rt":1654},{"slide":"test","cond":"ap","leftPic":"ap22a","rightPic":"ap22b","trialNum":63,"key":"a","correct":1,"rt":1618},{"slide":"test","cond":"ds","leftPic":"ds17a","rightPic":"ds17b","trialNum":64,"key":"h","correct":1,"rt":7473},{"slide":"test","cond":"ss","leftPic":"ss12a","rightPic":"ss12b","trialNum":65,"key":"h","correct":1,"rt":3340},{"slide":"test","cond":"ss","leftPic":"ss13a","rightPic":"ss13b","trialNum":66,"key":"h","correct":1,"rt":1722},{"slide":"test","cond":"ds","leftPic":"ds18a","rightPic":"ds18b","trialNum":67,"key":"h","correct":1,"rt":2788},{"slide":"test","cond":"ss","leftPic":"ss14a","rightPic":"ss14b","trialNum":68,"key":"h","correct":1,"rt":2126},{"slide":"test","cond":"ap","leftPic":"ap23a","rightPic":"ap23b","trialNum":69,"key":"a","correct":1,"rt":2980},{"slide":"test","cond":"dd","leftPic":"dd15a","rightPic":"dd15b","trialNum":70,"key":"h","correct":1,"rt":2854},{"slide":"test","cond":"ds","leftPic":"ds19a","rightPic":"ds19b","trialNum":71,"key":"h","correct":1,"rt":2295},{"slide":"test","cond":"ap","leftPic":"ap24a","rightPic":"ap24b","trialNum":72,"key":"a","correct":1,"rt":1822},{"slide":"test","cond":"ap","leftPic":"ap25a","rightPic":"ap25b","trialNum":73,"key":"a","correct":1,"rt":5063},{"slide":"test","cond":"ss","leftPic":"ss15a","rightPic":"ss15b","trialNum":74,"key":"h","correct":1,"rt":3789},{"slide":"test","cond":"dd","leftPic":"dd16a","rightPic":"dd16b","trialNum":75,"key":"h","correct":1,"rt":1475},{"slide":"test","cond":"ds","leftPic":"ds20a","rightPic":"ds20b","trialNum":76,"key":"h","correct":1,"rt":2339},{"slide":"test","cond":"ap","leftPic":"ap26a","rightPic":"ap26b","trialNum":77,"key":"a","correct":1,"rt":1969},{"slide":"test","cond":"ss","leftPic":"ss16a","rightPic":"ss16b","trialNum":78,"key":"h","correct":1,"rt":9183},{"slide":"test","cond":"dd","leftPic":"dd17a","rightPic":"dd17b","trialNum":79,"key":"h","correct":1,"rt":3190},{"slide":"test","cond":"ap","leftPic":"ap27a","rightPic":"ap27b","trialNum":80,"key":"a","correct":1,"rt":8232},{"slide":"test","cond":"ap","leftPic":"ap28a","rightPic":"ap28b","trialNum":81,"key":"a","correct":1,"rt":1629},{"slide":"test","cond":"dd","leftPic":"dd18a","rightPic":"dd18b","trialNum":82,"key":"h","correct":1,"rt":1147},{"slide":"test","cond":"ap","leftPic":"ap29a","rightPic":"ap29b","trialNum":83,"key":"a","correct":1,"rt":1414},{"slide":"test","cond":"ss","leftPic":"ss17a","rightPic":"ss17b","trialNum":84,"key":"h","correct":1,"rt":6714},{"slide":"test","cond":"ss","leftPic":"ss18a","rightPic":"ss18b","trialNum":85,"key":"h","correct":1,"rt":3569},{"slide":"test","cond":"ap","leftPic":"ap30a","rightPic":"ap30b","trialNum":86,"key":"a","correct":1,"rt":2406},{"slide":"test","cond":"dd","leftPic":"dd19a","rightPic":"dd19b","trialNum":87,"key":"h","correct":1,"rt":3472},{"slide":"test","cond":"ss","leftPic":"ss19a","rightPic":"ss19b","trialNum":88,"key":"h","correct":1,"rt":2933},{"slide":"test","cond":"dd","leftPic":"dd20a","rightPic":"dd20b","trialNum":89,"key":"h","correct":1,"rt":2599},{"slide":"test","cond":"ap","leftPic":"ap31a","rightPic":"ap31b","trialNum":90,"key":"a","correct":1,"rt":1598},{"slide":"test","cond":"ap","leftPic":"ap32a","rightPic":"ap32b","trialNum":91,"key":"a","correct":1,"rt":3682},{"slide":"test","cond":"ss","leftPic":"ss20a","rightPic":"ss20b","trialNum":92,"key":"h","correct":1,"rt":4604}]