[{"slide":"test","cond":"ss","leftPic":"ss1a","rightPic":"ss1b","trialNum":1,"key":"h","correct":1,"rt":732},{"slide":"test","cond":"ap","leftPic":"ap1a","rightPic":"ap1b","trialNum":2,"key":"a","correct":1,"rt":755},{"slide":"test","cond":"ss","leftPic":"ss2a","rightPic":"ss2b","trialNum":3,"key":"h","correct":1,"rt":637},{"slide":"test","cond":"ap","leftPic":"ap2a","rightPic":"ap2b","trialNum":4,"key":"a","correct":1,"rt":684},{"slide":"test","cond":"ds","leftPic":"ds1a","rightPic":"ds1b","trialNum":5,"key":"h","correct":1,"rt":715},{"slide":"test","cond":"ds","leftPic":"ds2a","rightPic":"ds2b","trialNum":6,"key":"h","correct":1,"rt":599},{"slide":"test","cond":"ss","leftPic":"ss3a","rightPic":"ss3b","trialNum":7,"key":"h","correct":1,"rt":790},{"slide":"test","cond":"ap","leftPic":"ap3a","rightPic":"ap3b","trialNum":8,"key":"a","correct":1,"rt":776},{"slide":"test","cond":"ds","leftPic":"ds3a","rightPic":"ds3b","trialNum":9,"key":"h","correct":1,"rt":777},{"slide":"test","cond":"ss","leftPic":"ss4a","rightPic":"ss4b","trialNum":10,"key":"h","correct":1,"rt":793},{"slide":"test","cond":"ds","leftPic":"ds4a","rightPic":"ds4b","trialNum":11,"key":"h","correct":1,"rt":691},{"slide":"test","cond":"ap","leftPic":"ap4a","rightPic":"ap4b","trialNum":12,"key":"a","correct":1,"rt":790},{"slide":"test","cond":"ss","leftPic":"ss5a","rightPic":"ss5b","trialNum":13,"key":"h","correct":1,"rt":765},{"slide":"test","cond":"dd","leftPic":"dd1a","rightPic":"dd1b","trialNum":14,"key":"h","correct":1,"rt":680},{"slide":"test","cond":"ds","leftPic":"ds5a","rightPic":"ds5b","trialNum":15,"key":"h","correct":1,"rt":719},{"slide":"test","cond":"dd","leftPic":"dd2a","rightPic":"dd2b","trialNum":16,"key":"h","correct":1,"rt":768},{"slide":"test","cond":"ap","leftPic":"ap5a","rightPic":"ap5b","trialNum":17,"key":"a","correct":1,"rt":738},{"slide":"test","cond":"dd","leftPic":"dd3a","rightPic":"dd3b","trialNum":18,"key":"h","correct":1,"rt":658},{"slide":"test","cond":"dd","leftPic":"dd4a","rightPic":"dd4b","trialNum":19,"key":"h","correct":1,"rt":715},{"slide":"test","cond":"ds","leftPic":"ds6a","rightPic":"ds6b","trialNum":20,"key":"h","correct":1,"rt":811},{"slide":"test","cond":"ds","leftPic":"ds7a","rightPic":"ds7b","trialNum":21,"key":"h","correct":1,"rt":790},{"slide":"test","cond":"ss","leftPic":"ss6a","rightPic":"ss6b","trialNum":22,"key":"h","correct":1,"rt":697},{"slide":"test","cond":"ap","leftPic":"ap6a","rightPic":"ap6b","trialNum":23,"key":"a","correct":1,"rt":656},{"slide":"test","cond":"dd","leftPic":"dd5a","rightPic":"dd5b","trialNum":24,"key":"h","correct":1,"rt":640},{"slide":"test","cond":"ap","leftPic":"ap7a","rightPic":"ap7b","trialNum":25,"key":"a","correct":1,"rt":711},{"slide":"test","cond":"dd","leftPic":"dd6a","rightPic":"dd6b","trialNum":26,"key":"h","correct":1,"rt":703},{"slide":"test","cond":"dd","leftPic":"dd7a","rightPic":"dd7b","trialNum":27,"key":"h","correct":1,"rt":599},{"slide":"test","cond":"ss","leftPic":"ss7a","rightPic":"ss7b","trialNum":28,"key":"h","correct":1,"rt":663},{"slide":"test","cond":"ds","leftPic":"ds8a","rightPic":"ds8b","trialNum":29,"key":"h","correct":1,"rt":700},{"slide":"test","cond":"ap","leftPic":"ap8a","rightPic":"ap8b","trialNum":30,"key":"a","correct":1,"rt":662},{"slide":"test","cond":"ss","leftPic":"ss8a","rightPic":"ss8b","trialNum":31,"key":"h","correct":1,"rt":938},{"slide":"test","cond":"ap","leftPic":"ap9a","rightPic":"ap9b","trialNum":32,"key":"a","correct":1,"rt":739},{"slide":"test","cond":"ap","leftPic":"ap10a","rightPic":"ap10b","trialNum":33,"key":"a","correct":1,"rt":707},{"slide":"test","cond":"ds","leftPic":"ds9a","rightPic":"ds9b","trialNum":34,"key":"h","correct":1,"rt":684},{"slide":"test","cond":"ds","leftPic":"ds10a","rightPic":"ds10b","trialNum":35,"key":"h","correct":1,"rt":676},{"slide":"test","cond":"ss","leftPic":"ss9a","rightPic":"ss9b","trialNum":36,"key":"h","correct":1,"rt":755},{"slide":"test","cond":"ap","leftPic":"ap11a","rightPic":"ap11b","trialNum":37,"key":"a","correct":1,"rt":741},{"slide":"test","cond":"ss","leftPic":"ss10a","rightPic":"ss10b","trialNum":38,"key":"h","correct":1,"rt":670},{"slide":"test","cond":"ap","leftPic":"ap12a","rightPic":"ap12b","trialNum":39,"key":"a","correct":1,"rt":654},{"slide":"test","cond":"ap","leftPic":"ap13a","rightPic":"ap13b","trialNum":40,"key":"a","correct":1,"rt":749},{"slide":"test","cond":"ap","leftPic":"ap14a","rightPic":"ap14b","trialNum":41,"key":"a","correct":1,"rt":711},{"slide":"test","cond":"dd","leftPic":"dd8a","rightPic":"dd8b","trialNum":42,"key":"h","correct":1,"rt":719},{"slide":"test","cond":"ds","leftPic":"ds11a","rightPic":"ds11b","trialNum":43,"key":"h","correct":1,"rt":672},{"slide":"test","cond":"ss","leftPic":"ss11a","rightPic":"ss11b","trialNum":44,"key":"h","correct":1,"rt":624},{"slide":"test","cond":"dd","leftPic":"dd9a","rightPic":"dd9b","trialNum":45,"key":"h","correct":1,"rt":542},{"slide":"test","cond":"ds","leftPic":"ds12a","rightPic":"ds12b","trialNum":46,"key":"h","correct":1,"rt":586},{"slide":"test","cond":"ds","leftPic":"ds13a","rightPic":"ds13b","trialNum":47,"key":"h","correct":1,"rt":665},{"slide":"test","cond":"ss","leftPic":"ss12a","rightPic":"ss12b","trialNum":48,"key":"h","correct":1,"rt":624},{"slide":"test","cond":"ap","leftPic":"ap15a","rightPic":"ap15b","trialNum":49,"key":"a","correct":1,"rt":710},{"slide":"test","cond":"ap","leftPic":"ap16a","rightPic":"ap16b","trialNum":50,"key":"a","correct":1,"rt":815},{"slide":"test","cond":"dd","leftPic":"dd10a","rightPic":"dd10b","trialNum":51,"key":"h","correct":1,"rt":745},{"slide":"test","cond":"ds","leftPic":"ds14a","rightPic":"ds14b","trialNum":52,"key":"h","correct":1,"rt":698},{"slide":"test","cond":"dd","leftPic":"dd11a","rightPic":"dd11b","trialNum":53,"key":"h","correct":1,"rt":826},{"slide":"test","cond":"ss","leftPic":"ss13a","rightPic":"ss13b","trialNum":54,"key":"h","correct":1,"rt":590},{"slide":"test","cond":"ss","leftPic":"ss14a","rightPic":"ss14b","trialNum":55,"key":"h","correct":1,"rt":641},{"slide":"test","cond":"ap","leftPic":"ap17a","rightPic":"ap17b","trialNum":56,"key":"a","correct":1,"rt":730},{"slide":"test","cond":"ap","leftPic":"ap18a","rightPic":"ap18b","trialNum":57,"key":"a","correct":1,"rt":795},{"slide":"test","cond":"ap","leftPic":"ap19a","rightPic":"ap19b","trialNum":58,"key":"a","correct":1,"rt":805},{"slide":"test","cond":"ds","leftPic":"ds15a","rightPic":"ds15b","trialNum":59,"key":"h","correct":1,"rt":704},{"slide":"test","cond":"ap","leftPic":"ap20a","rightPic":"ap20b","trialNum":60,"key":"a","correct":1,"rt":807},{"slide":"test","cond":"ss","leftPic":"ss15a","rightPic":"ss15b","trialNum":61,"key":"h","correct":1,"rt":716},{"slide":"test","cond":"ap","leftPic":"ap21a","rightPic":"ap21b","trialNum":62,"key":"a","correct":1,"rt":709},{"slide":"test","cond":"ap","leftPic":"ap22a","rightPic":"ap22b","trialNum":63,"key":"a","correct":1,"rt":732},{"slide":"test","cond":"ap","leftPic":"ap23a","rightPic":"ap23b","trialNum":64,"key":"a","correct":1,"rt":766},{"slide":"test","cond":"dd","leftPic":"dd12a","rightPic":"dd12b","trialNum":65,"key":"h","correct":1,"rt":672},{"slide":"test","cond":"ss","leftPic":"ss16a","rightPic":"ss16b","trialNum":66,"key":"h","correct":1,"rt":639},{"slide":"test","cond":"ap","leftPic":"ap24a","rightPic":"ap24b","trialNum":67,"key":"a","correct":1,"rt":712},{"slide":"test","cond":"dd","leftPic":"dd13a","rightPic":"dd13b","trialNum":68,"key":"h","correct":1,"rt":655},{"slide":"test","cond":"dd","leftPic":"dd14a","rightPic":"dd14b","trialNum":69,"key":"h","correct":1,"rt":646},{"slide":"test","cond":"dd","leftPic":"dd15a","rightPic":"dd15b","trialNum":70,"key":"h","correct":1,"rt":685},{"slide":"test","cond":"ap","leftPic":"ap25a","rightPic":"ap25b","trialNum":71,"key":"a","correct":1,"rt":661},{"slide":"test","cond":"ds","leftPic":"ds16a","rightPic":"ds16b","trialNum":72,"key":"h","correct":1,"rt":651},{"slide":"test","cond":"ds","leftPic":"ds17a","rightPic":"ds17b","trialNum":73,"key":"h","correct":1,"rt":676},{"slide":"test","cond":"ss","leftPic":"ss17a","rightPic":"ss17b","trialNum":74,"key":"h","correct":1,"rt":715},{"slide":"test","cond":"ss","leftPic":"ss18a","rightPic":"ss18b","trialNum":75,"key":"h","correct":1,"rt":746},{"slide":"test","cond":"ap","leftPic":"ap26a","rightPic":"ap26b","trialNum":76,"key":"a","correct":1,"rt":757},{"slide":"test","cond":"dd","leftPic":"dd16a","rightPic":"dd16b","trialNum":77,"key":"h","correct":1,"rt":726},{"slide":"test","cond":"ds","leftPic":"ds18a","rightPic":"ds18b","trialNum":78,"key":"h","correct":1,"rt":686},{"slide":"test","cond":"ss","leftPic":"ss19a","rightPic":"ss19b","trialNum":79,"key":"h","correct":1,"rt":631},{"slide":"test","cond":"dd","leftPic":"dd17a","rightPic":"dd17b","trialNum":80,"key":"h","correct":1,"rt":629},{"slide":"test","cond":"ss","leftPic":"ss20a","rightPic":"ss20b","trialNum":81,"key":"h","correct":1,"rt":724},{"slide":"test","cond":"dd","leftPic":"dd18a","rightPic":"dd18b","trialNum":82,"key":"h","correct":1,"rt":685},{"slide":"test","cond":"ap","leftPic":"ap27a","rightPic":"ap27b","trialNum":83,"key":"a","correct":1,"rt":685},{"slide":"test","cond":"ap","leftPic":"ap28a","rightPic":"ap28b","trialNum":84,"key":"a","correct":1,"rt":821},{"slide":"test","cond":"ap","leftPic":"ap29a","rightPic":"ap29b","trialNum":85,"key":"a","correct":1,"rt":808},{"slide":"test","cond":"ap","leftPic":"ap30a","rightPic":"ap30b","trialNum":86,"key":"a","correct":1,"rt":835},{"slide":"test","cond":"ds","leftPic":"ds19a","rightPic":"ds19b","trialNum":87,"key":"h","correct":1,"rt":766},{"slide":"test","cond":"dd","leftPic":"dd19a","rightPic":"dd19b","trialNum":88,"key":"h","correct":1,"rt":682},{"slide":"test","cond":"ds","leftPic":"ds20a","rightPic":"ds20b","trialNum":89,"key":"h","correct":1,"rt":657},{"slide":"test","cond":"ap","leftPic":"ap31a","rightPic":"ap31b","trialNum":90,"key":"a","correct":1,"rt":782},{"slide":"test","cond":"dd","leftPic":"dd20a","rightPic":"dd20b","trialNum":91,"key":"h","correct":1,"rt":738},{"slide":"test","cond":"ap","leftPic":"ap32a","rightPic":"ap32b","trialNum":92,"key":"a","correct":1,"rt":721}]