[{"slide":"test","cond":"dd","leftPic":"dd1a","rightPic":"dd1b","trialNum":1,"key":"h","correct":1,"rt":2343},{"slide":"test","cond":"ds","leftPic":"ds1a","rightPic":"ds1b","trialNum":2,"key":"h","correct":1,"rt":1422},{"slide":"test","cond":"ss","leftPic":"ss1a","rightPic":"ss1b","trialNum":3,"key":"h","correct":1,"rt":1278},{"slide":"test","cond":"dd","leftPic":"dd2a","rightPic":"dd2b","trialNum":4,"key":"h","correct":1,"rt":1195},{"slide":"test","cond":"ds","leftPic":"ds2a","rightPic":"ds2b","trialNum":5,"key":"h","correct":1,"rt":1186},{"slide":"test","cond":"dd","leftPic":"dd3a","rightPic":"dd3b","trialNum":6,"key":"h","correct":1,"rt":1140},{"slide":"test","cond":"ds","leftPic":"ds3a","rightPic":"ds3b","trialNum":7,"key":"h","correct":1,"rt":913},{"slide":"test","cond":"ap","leftPic":"ap1a","rightPic":"ap1b","trialNum":8,"key":"a","correct":1,"rt":2036},{"slide":"test","cond":"ss","leftPic":"ss2a","rightPic":"ss2b","trialNum":9,"key":"h","correct":1,"rt":1773},{"slide":"test","cond":"ap","leftPic":"ap2a","rightPic":"ap2b","trialNum":10,"key":"a","correct":1,"rt":1686},{"slide":"test","cond":"dd","leftPic":"dd4a","rightPic":"dd4b","trialNum":11,"key":"h","correct":1,"rt":2014},{"slide":"test","cond":"ap","leftPic":"ap3a","rightPic":"ap3b","trialNum":12,"key":"a","correct":1,"rt":1461},{"slide":"test","cond":"ap","leftPic":"ap4a","rightPic":"ap4b","trialNum":13,"key":"a","correct":1,"rt":846},{"slide":"test","cond":"ss","leftPic":"ss3a","rightPic":"ss3b","trialNum":14,"key":"h","correct":1,"rt":1505},{"slide":"test","cond":"ss","leftPic":"ss4a","rightPic":"ss4b","trialNum":15,"key":"h","correct":1,"rt":2445},{"slide":"test","cond":"ds","leftPic":"ds4a","rightPic":"ds4b","trialNum":16,"key":"h","correct":1,"rt":1039},{"slide":"test","cond":"dd","leftPic":"dd5a","rightPic":"dd5b","trialNum":17,"key":"h","correct":1,"rt":1018},{"slide":"test","cond":"ap","leftPic":"ap5a","rightPic":"ap5b","trialNum":18,"key":"a","correct":1,"rt":1437},{"slide":"test","cond":"ap","leftPic":"ap6a","rightPic":"ap6b","trialNum":19,"key":"a","correct":1,"rt":1070},{"slide":"test","cond":"ds","leftPic":"ds5a","rightPic":"ds5b","trialNum":20,"key":"h","correct":1,"rt":1908},{"slide":"test","cond":"ds","leftPic":"ds6a","rightPic":"ds6b","trialNum":21,"key":"h","correct":1,"rt":1155},{"slide":"test","cond":"ss","leftPic":"ss5a","rightPic":"ss5b","trialNum":22,"key":"h","correct":1,"rt":1003},{"slide":"test","cond":"ap","leftPic":"ap7a","rightPic":"ap7b","trialNum":23,"key":"a","correct":1,"rt":1635},{"slide":"test","cond":"ap","leftPic":"ap8a","rightPic":"ap8b","trialNum":24,"key":"a","correct":1,"rt":909},{"slide":"test","cond":"ds","leftPic":"ds7a","rightPic":"ds7b","trialNum":25,"key":"h","correct":1,"rt":1484},{"slide":"test","cond":"ap","leftPic":"ap9a","rightPic":"ap9b","trialNum":26,"key":"a","correct":1,"rt":1582},{"slide":"test","cond":"ds","leftPic":"ds8a","rightPic":"ds8b","trialNum":27,"key":"h","correct":1,"rt":1454},{"slide":"test","cond":"ap","leftPic":"ap10a","rightPic":"ap10b","trialNum":28,"key":"a","correct":1,"rt":1325},{"slide":"test","cond":"dd","leftPic":"dd6a","rightPic":"dd6b","trialNum":29,"key":"h","correct":1,"rt":1407},{"slide":"test","cond":"ds","leftPic":"ds9a","rightPic":"ds9b","trialNum":30,"key":"h","correct":1,"rt":951},{"slide":"test","cond":"dd","leftPic":"dd7a","rightPic":"dd7b","trialNum":31,"key":"h","correct":1,"rt":891},{"slide":"test","cond":"ss","leftPic":"ss6a","rightPic":"ss6b","trialNum":32,"key":"h","correct":1,"rt":964},{"slide":"test","cond":"ap","leftPic":"ap11a","rightPic":"ap11b","trialNum":33,"key":"a","correct":1,"rt":1244},{"slide":"test","cond":"ss","leftPic":"ss7a","rightPic":"ss7b","trialNum":34,"key":"h","correct":1,"rt":2163},{"slide":"test","cond":"dd","leftPic":"dd8a","rightPic":"dd8b","trialNum":35,"key":"h","correct":1,"rt":1334},{"slide":"test","cond":"dd","leftPic":"dd9a","rightPic":"dd9b","trialNum":36,"key":"h","correct":1,"rt":874},{"slide":"test","cond":"ap","leftPic":"ap12a","rightPic":"ap12b","trialNum":37,"key":"a","correct":1,"rt":1309},{"slide":"test","cond":"ap","leftPic":"ap13a","rightPic":"ap13b","trialNum":38,"key":"a","correct":1,"rt":864},{"slide":"test","cond":"ap","leftPic":"ap14a","rightPic":"ap14b","trialNum":39,"key":"a","correct":1,"rt":831},{"slide":"test","cond":"ss","leftPic":"ss8a","rightPic":"ss8b","trialNum":40,"key":"h","correct":1,"rt":1530},{"slide":"test","cond":"ss","leftPic":"ss9a","rightPic":"ss9b","trialNum":41,"key":"h","correct":1,"rt":846},{"slide":"test","cond":"ap","leftPic":"ap15a","rightPic":"ap15b","trialNum":42,"key":"a","correct":1,"rt":1730},{"slide":"test","cond":"ds","leftPic":"ds10a","rightPic":"ds10b","trialNum":43,"key":"h","correct":1,"rt":1488},{"slide":"test","cond":"ap","leftPic":"ap16a","rightPic":"ap16b","trialNum":44,"key":"a","correct":1,"rt":1377},{"slide":"test","cond":"dd","leftPic":"dd10a","rightPic":"dd10b","trialNum":45,"key":"h","correct":1,"rt":1323},{"slide":"test","cond":"dd","leftPic":"dd11a","rightPic":"dd11b","trialNum":46,"key":"h","correct":1,"rt":884},{"slide":"test","cond":"ds","leftPic":"ds11a","rightPic":"ds11b","trialNum":47,"key":"h","correct":1,"rt":706},{"slide":"test","cond":"ss","leftPic":"ss10a","rightPic":"ss10b","trialNum":48,"key":"h","correct":1,"rt":785},{"slide":"test","cond":"ds","leftPic":"ds12a","rightPic":"ds12b","trialNum":49,"key":"h","correct":1,"rt":728},{"slide":"test","cond":"ss","leftPic":"ss11a","rightPic":"ss11b","trialNum":50,"key":"h","correct":1,"rt":711},{"slide":"test","cond":"ap","leftPic":"ap17a","rightPic":"ap17b","trialNum":51,"key":"a","correct":1,"rt":1369},{"slide":"test","cond":"ds","leftPic":"ds13a","rightPic":"ds13b","trialNum":52,"key":"h","correct":1,"rt":1260},{"slide":"test","cond":"ap","leftPic":"ap18a","rightPic":"ap18b","trialNum":53,"key":"a","correct":1,"rt":1362},{"slide":"test","cond":"dd","leftPic":"dd12a","rightPic":"dd12b","trialNum":54,"key":"h","correct":1,"rt":1282},{"slide":"test","cond":"ss","leftPic":"ss12a","rightPic":"ss12b","trialNum":55,"key":"h","correct":1,"rt":932},{"slide":"test","cond":"ap","leftPic":"ap19a","rightPic":"ap19b","trialNum":56,"key":"a","correct":1,"rt":1414},{"slide":"test","cond":"dd","leftPic":"dd13a","rightPic":"dd13b","trialNum":57,"key":"h","correct":1,"rt":1733},{"slide":"test","cond":"ds","leftPic":"ds14a","rightPic":"ds14b","trialNum":58,"key":"h","correct":1,"rt":844},{"slide":"test","cond":"ds","leftPic":"ds15a","rightPic":"ds15b","trialNum":59,"key":"h","correct":1,"rt":708},{"slide":"test","cond":"dd","leftPic":"dd14a","rightPic":"dd14b","trialNum":60,"key":"h","correct":1,"rt":787},{"slide":"test","cond":"dd","leftPic":"dd15a","rightPic":"dd15b","trialNum":61,"key":"h","correct":1,"rt":1901},{"slide":"test","cond":"ss","leftPic":"ss13a","rightPic":"ss13b","trialNum":62,"key":"h","correct":1,"rt":1454},{"slide":"test","cond":"ap","leftPic":"ap20a","rightPic":"ap20b","trialNum":63,"key":"a","correct":1,"rt":1493},{"slide":"test","cond":"ap","leftPic":"ap21a","rightPic":"ap21b","trialNum":64,"key":"a","correct":1,"rt":1098},{"slide":"test","cond":"ap","leftPic":"ap22a","rightPic":"ap22b","trialNum":65,"key":"a","correct":1,"rt":923},{"slide":"test","cond":"ap","leftPic":"ap23a","rightPic":"ap23b","trialNum":66,"key":"a","correct":1,"rt":988},{"slide":"test","cond":"ap","leftPic":"ap24a","rightPic":"ap24b","trialNum":67,"key":"a","correct":1,"rt":813},{"slide":"test","cond":"dd","leftPic":"dd16a","rightPic":"dd16b","trialNum":68,"key":"h","correct":1,"rt":1288},{"slide":"test","cond":"ds","leftPic":"ds16a","rightPic":"ds16b","trialNum":69,"key":"h","correct":1,"rt":734},{"slide":"test","cond":"dd","leftPic":"dd17a","rightPic":"dd17b","trialNum":70,"key":"h","correct":1,"rt":733},{"slide":"test","cond":"ss","leftPic":"ss14a","rightPic":"ss14b","trialNum":71,"key":"h","correct":1,"rt":706},{"slide":"test","cond":"ss","leftPic":"ss15a","rightPic":"ss15b","trialNum":72,"key":"h","correct":1,"rt":712},{"slide":"test","cond":"ap","leftPic":"ap25a","rightPic":"ap25b","trialNum":73,"key":"a","correct":1,"rt":1296},{"slide":"test","cond":"ap","leftPic":"ap26a","rightPic":"ap26b","trialNum":74,"key":"a","correct":1,"rt":739},{"slide":"test","cond":"ap","leftPic":"ap27a","rightPic":"ap27b","trialNum":75,"key":"a","correct":1,"rt":875},{"slide":"test","cond":"ds","leftPic":"ds17a","rightPic":"ds17b","trialNum":76,"key":"h","correct":1,"rt":1260},{"slide":"test","cond":"ds","leftPic":"ds18a","rightPic":"ds18b","trialNum":77,"key":"h","correct":1,"rt":983},{"slide":"test","cond":"ss","leftPic":"ss16a","rightPic":"ss16b","trialNum":78,"key":"h","correct":1,"rt":770},{"slide":"test","cond":"dd","leftPic":"dd18a","rightPic":"dd18b","trialNum":79,"key":"h","correct":1,"rt":716},{"slide":"test","cond":"ss","leftPic":"ss17a","rightPic":"ss17b","trialNum":80,"key":"h","correct":1,"rt":839},{"slide":"test","cond":"dd","leftPic":"dd19a","rightPic":"dd19b","trialNum":81,"key":"h","correct":1,"rt":749},{"slide":"test","cond":"ap","leftPic":"ap28a","rightPic":"ap28b","trialNum":82,"key":"a","correct":1,"rt":1237},{"slide":"test","cond":"ap","leftPic":"ap29a","rightPic":"ap29b","trialNum":83,"key":"a","correct":1,"rt":788},{"slide":"test","cond":"ss","leftPic":"ss18a","rightPic":"ss18b","trialNum":84,"key":"h","correct":1,"rt":1152},{"slide":"test","cond":"ds","leftPic":"ds19a","rightPic":"ds19b","trialNum":85,"key":"h","correct":1,"rt":713},{"slide":"test","cond":"ss","leftPic":"ss19a","rightPic":"ss19b","trialNum":86,"key":"h","correct":1,"rt":708},{"slide":"test","cond":"ss","leftPic":"ss20a","rightPic":"ss20b","trialNum":87,"key":"h","correct":1,"rt":719},{"slide":"test","cond":"dd","leftPic":"dd20a","rightPic":"dd20b","trialNum":88,"key":"h","correct":1,"rt":677},{"slide":"test","cond":"ap","leftPic":"ap30a","rightPic":"ap30b","trialNum":89,"key":"a","correct":1,"rt":2724},{"slide":"test","cond":"ap","leftPic":"ap31a","rightPic":"ap31b","trialNum":90,"key":"a","correct":1,"rt":696},{"slide":"test","cond":"ap","leftPic":"ap32a","rightPic":"ap32b","trialNum":91,"key":"a","correct":1,"rt":714},{"slide":"test","cond":"ds","leftPic":"ds20a","rightPic":"ds20b","trialNum":92,"key":"h","correct":1,"rt":1639}]