[{"slide":"test","cond":"ap","leftPic":"ap32b","rightPic":"ap32a","trialNum":1,"key":"a","correct":1,"rt":2300},{"slide":"test","cond":"ap","leftPic":"ap31b","rightPic":"ap31a","trialNum":2,"key":"a","correct":1,"rt":1995},{"slide":"test","cond":"ds","leftPic":"ds20b","rightPic":"ds20a","trialNum":3,"key":"h","correct":1,"rt":1034},{"slide":"test","cond":"ds","leftPic":"ds19b","rightPic":"ds19a","trialNum":4,"key":"h","correct":1,"rt":882},{"slide":"test","cond":"ds","leftPic":"ds18b","rightPic":"ds18a","trialNum":5,"key":"h","correct":1,"rt":882},{"slide":"test","cond":"ap","leftPic":"ap30b","rightPic":"ap30a","trialNum":6,"key":"a","correct":1,"rt":964},{"slide":"test","cond":"ss","leftPic":"ss20b","rightPic":"ss20a","trialNum":7,"key":"h","correct":1,"rt":1074},{"slide":"test","cond":"ss","leftPic":"ss19b","rightPic":"ss19a","trialNum":8,"key":"h","correct":1,"rt":947},{"slide":"test","cond":"ap","leftPic":"ap29b","rightPic":"ap29a","trialNum":9,"key":"a","correct":1,"rt":1306},{"slide":"test","cond":"ap","leftPic":"ap28b","rightPic":"ap28a","trialNum":10,"key":"a","correct":1,"rt":963},{"slide":"test","cond":"ap","leftPic":"ap27b","rightPic":"ap27a","trialNum":11,"key":"a","correct":1,"rt":946},{"slide":"test","cond":"ss","leftPic":"ss18b","rightPic":"ss18a","trialNum":12,"key":"h","correct":1,"rt":903},{"slide":"test","cond":"ds","leftPic":"ds17b","rightPic":"ds17a","trialNum":13,"key":"h","correct":1,"rt":2039},{"slide":"test","cond":"dd","leftPic":"dd20b","rightPic":"dd20a","trialNum":14,"key":"h","correct":1,"rt":875},{"slide":"test","cond":"dd","leftPic":"dd19b","rightPic":"dd19a","trialNum":15,"key":"h","correct":1,"rt":855},{"slide":"test","cond":"ap","leftPic":"ap26b","rightPic":"ap26a","trialNum":16,"key":"a","correct":1,"rt":830},{"slide":"test","cond":"ss","leftPic":"ss17b","rightPic":"ss17a","trialNum":17,"key":"h","correct":1,"rt":891},{"slide":"test","cond":"ds","leftPic":"ds16b","rightPic":"ds16a","trialNum":18,"key":"h","correct":1,"rt":1018},{"slide":"test","cond":"ap","leftPic":"ap25b","rightPic":"ap25a","trialNum":19,"key":"a","correct":1,"rt":1306},{"slide":"test","cond":"dd","leftPic":"dd18b","rightPic":"dd18a","trialNum":20,"key":"h","correct":1,"rt":867},{"slide":"test","cond":"ss","leftPic":"ss16b","rightPic":"ss16a","trialNum":21,"key":"h","correct":1,"rt":1091},{"slide":"test","cond":"ap","leftPic":"ap24b","rightPic":"ap24a","trialNum":22,"key":"a","correct":1,"rt":1002},{"slide":"test","cond":"ds","leftPic":"ds15b","rightPic":"ds15a","trialNum":23,"key":"h","correct":1,"rt":1250},{"slide":"test","cond":"ap","leftPic":"ap23b","rightPic":"ap23a","trialNum":24,"key":"a","correct":1,"rt":1011},{"slide":"test","cond":"ap","leftPic":"ap22b","rightPic":"ap22a","trialNum":25,"key":"a","correct":1,"rt":850},{"slide":"test","cond":"ds","leftPic":"ds14b","rightPic":"ds14a","trialNum":26,"key":"h","correct":1,"rt":891},{"slide":"test","cond":"ss","leftPic":"ss15b","rightPic":"ss15a","trialNum":27,"key":"h","correct":1,"rt":819},{"slide":"test","cond":"ds","leftPic":"ds13b","rightPic":"ds13a","trialNum":28,"key":"h","correct":1,"rt":875},{"slide":"test","cond":"ss","leftPic":"ss14b","rightPic":"ss14a","trialNum":29,"key":"h","correct":1,"rt":1051},{"slide":"test","cond":"ap","leftPic":"ap21b","rightPic":"ap21a","trialNum":30,"key":"a","correct":1,"rt":755},{"slide":"test","cond":"dd","leftPic":"dd17b","rightPic":"dd17a","trialNum":31,"key":"h","correct":1,"rt":778},{"slide":"test","cond":"dd","leftPic":"dd16b","rightPic":"dd16a","trialNum":32,"key":"h","correct":1,"rt":2691},{"slide":"test","cond":"ap","leftPic":"ap20b","rightPic":"ap20a","trialNum":33,"key":"a","correct":1,"rt":807},{"slide":"test","cond":"ap","leftPic":"ap19b","rightPic":"ap19a","trialNum":34,"key":"a","correct":1,"rt":899},{"slide":"test","cond":"ds","leftPic":"ds12b","rightPic":"ds12a","trialNum":35,"key":"h","correct":1,"rt":712},{"slide":"test","cond":"ap","leftPic":"ap18b","rightPic":"ap18a","trialNum":36,"key":"a","correct":1,"rt":731},{"slide":"test","cond":"ds","leftPic":"ds11b","rightPic":"ds11a","trialNum":37,"key":"h","correct":1,"rt":739},{"slide":"test","cond":"ss","leftPic":"ss13b","rightPic":"ss13a","trialNum":38,"key":"h","correct":1,"rt":834},{"slide":"test","cond":"ds","leftPic":"ds10b","rightPic":"ds10a","trialNum":39,"key":"h","correct":1,"rt":891},{"slide":"test","cond":"ap","leftPic":"ap17b","rightPic":"ap17a","trialNum":40,"key":"a","correct":1,"rt":746},{"slide":"test","cond":"dd","leftPic":"dd15b","rightPic":"dd15a","trialNum":41,"key":"h","correct":1,"rt":995},{"slide":"test","cond":"ap","leftPic":"ap16b","rightPic":"ap16a","trialNum":42,"key":"a","correct":1,"rt":1098},{"slide":"test","cond":"dd","leftPic":"dd14b","rightPic":"dd14a","trialNum":43,"key":"h","correct":1,"rt":987},{"slide":"test","cond":"dd","leftPic":"dd13b","rightPic":"dd13a","trialNum":44,"key":"h","correct":1,"rt":907},{"slide":"test","cond":"dd","leftPic":"dd12b","rightPic":"dd12a","trialNum":45,"key":"h","correct":1,"rt":873},{"slide":"test","cond":"ss","leftPic":"ss12b","rightPic":"ss12a","trialNum":46,"key":"h","correct":1,"rt":739},{"slide":"test","cond":"dd","leftPic":"dd11b","rightPic":"dd11a","trialNum":47,"key":"h","correct":1,"rt":686},{"slide":"test","cond":"ss","leftPic":"ss11b","rightPic":"ss11a","trialNum":48,"key":"h","correct":1,"rt":790},{"slide":"test","cond":"dd","leftPic":"dd10b","rightPic":"dd10a","trialNum":49,"key":"h","correct":1,"rt":751},{"slide":"test","cond":"dd","leftPic":"dd9b","rightPic":"dd9a","trialNum":50,"key":"h","correct":1,"rt":803},{"slide":"test","cond":"ap","leftPic":"ap15b","rightPic":"ap15a","trialNum":51,"key":"a","correct":1,"rt":763},{"slide":"test","cond":"ap","leftPic":"ap14b","rightPic":"ap14a","trialNum":52,"key":"a","correct":1,"rt":1018},{"slide":"test","cond":"ap","leftPic":"ap13b","rightPic":"ap13a","trialNum":53,"key":"a","correct":1,"rt":699},{"slide":"test","cond":"ap","leftPic":"ap12b","rightPic":"ap12a","trialNum":54,"key":"a","correct":1,"rt":811},{"slide":"test","cond":"ss","leftPic":"ss10b","rightPic":"ss10a","trialNum":55,"key":"h","correct":1,"rt":755},{"slide":"test","cond":"dd","leftPic":"dd8b","rightPic":"dd8a","trialNum":56,"key":"h","correct":1,"rt":1099},{"slide":"test","cond":"ap","leftPic":"ap11b","rightPic":"ap11a","trialNum":57,"key":"a","correct":1,"rt":808},{"slide":"test","cond":"ss","leftPic":"ss9b","rightPic":"ss9a","trialNum":58,"key":"h","correct":1,"rt":960},{"slide":"test","cond":"ds","leftPic":"ds9b","rightPic":"ds9a","trialNum":59,"key":"h","correct":1,"rt":1090},{"slide":"test","cond":"ap","leftPic":"ap10b","rightPic":"ap10a","trialNum":60,"key":"a","correct":1,"rt":906},{"slide":"test","cond":"ds","leftPic":"ds8b","rightPic":"ds8a","trialNum":61,"key":"h","correct":1,"rt":930},{"slide":"test","cond":"ap","leftPic":"ap9b","rightPic":"ap9a","trialNum":62,"key":"a","correct":1,"rt":771},{"slide":"test","cond":"ds","leftPic":"ds7b","rightPic":"ds7a","trialNum":63,"key":"h","correct":1,"rt":1227},{"slide":"test","cond":"dd","leftPic":"dd7b","rightPic":"dd7a","trialNum":64,"key":"h","correct":1,"rt":1075},{"slide":"test","cond":"ap","leftPic":"ap8b","rightPic":"ap8a","trialNum":65,"key":"a","correct":1,"rt":811},{"slide":"test","cond":"ap","leftPic":"ap7b","rightPic":"ap7a","trialNum":66,"key":"a","correct":1,"rt":942},{"slide":"test","cond":"ds","leftPic":"ds6b","rightPic":"ds6a","trialNum":67,"key":"h","correct":1,"rt":891},{"slide":"test","cond":"ds","leftPic":"ds5b","rightPic":"ds5a","trialNum":68,"key":"h","correct":1,"rt":1475},{"slide":"test","cond":"ap","leftPic":"ap6b","rightPic":"ap6a","trialNum":69,"key":"a","correct":1,"rt":834},{"slide":"test","cond":"dd","leftPic":"dd6b","rightPic":"dd6a","trialNum":70,"key":"h","correct":1,"rt":907},{"slide":"test","cond":"ss","leftPic":"ss8b","rightPic":"ss8a","trialNum":71,"key":"h","correct":1,"rt":994},{"slide":"test","cond":"ds","leftPic":"ds4b","rightPic":"ds4a","trialNum":72,"key":"h","correct":1,"rt":794},{"slide":"test","cond":"ss","leftPic":"ss7b","rightPic":"ss7a","trialNum":73,"key":"h","correct":1,"rt":755},{"slide":"test","cond":"dd","leftPic":"dd5b","rightPic":"dd5a","trialNum":74,"key":"h","correct":1,"rt":715},{"slide":"test","cond":"ap","leftPic":"ap5b","rightPic":"ap5a","trialNum":75,"key":"a","correct":1,"rt":850},{"slide":"test","cond":"ds","leftPic":"ds3b","rightPic":"ds3a","trialNum":76,"key":"h","correct":1,"rt":1156},{"slide":"test","cond":"ss","leftPic":"ss6b","rightPic":"ss6a","trialNum":77,"key":"h","correct":1,"rt":834},{"slide":"test","cond":"ss","leftPic":"ss5b","rightPic":"ss5a","trialNum":78,"key":"h","correct":1,"rt":722},{"slide":"test","cond":"ds","leftPic":"ds2b","rightPic":"ds2a","trialNum":79,"key":"h","correct":1,"rt":650},{"slide":"test","cond":"ss","leftPic":"ss4b","rightPic":"ss4a","trialNum":80,"key":"h","correct":1,"rt":510},{"slide":"test","cond":"dd","leftPic":"dd4b","rightPic":"dd4a","trialNum":81,"key":"h","correct":1,"rt":531},{"slide":"test","cond":"ap","leftPic":"ap4b","rightPic":"ap4a","trialNum":82,"key":"a","correct":1,"rt":699},{"slide":"test","cond":"ap","leftPic":"ap3b","rightPic":"ap3a","trialNum":83,"key":"a","correct":1,"rt":738},{"slide":"test","cond":"ss","leftPic":"ss3b","rightPic":"ss3a","trialNum":84,"key":"h","correct":1,"rt":667},{"slide":"test","cond":"ss","leftPic":"ss2b","rightPic":"ss2a","trialNum":85,"key":"h","correct":1,"rt":851},{"slide":"test","cond":"ap","leftPic":"ap2b","rightPic":"ap2a","trialNum":86,"key":"a","correct":1,"rt":826},{"slide":"test","cond":"dd","leftPic":"dd3b","rightPic":"dd3a","trialNum":87,"key":"h","correct":1,"rt":767},{"slide":"test","cond":"ds","leftPic":"ds1b","rightPic":"ds1a","trialNum":88,"key":"h","correct":1,"rt":1234},{"slide":"test","cond":"dd","leftPic":"dd2b","rightPic":"dd2a","trialNum":89,"key":"h","correct":1,"rt":751},{"slide":"test","cond":"ss","leftPic":"ss1b","rightPic":"ss1a","trialNum":90,"key":"h","correct":1,"rt":623},{"slide":"test","cond":"ap","leftPic":"ap1b","rightPic":"ap1a","trialNum":91,"key":"a","correct":1,"rt":675},{"slide":"test","cond":"dd","leftPic":"dd1b","rightPic":"dd1a","trialNum":92,"key":"h","correct":1,"rt":626}]