[{"slide":"test","cond":"dd","leftPic":"dd20b","rightPic":"dd20a","trialNum":1,"key":"h","correct":1,"rt":1017},{"slide":"test","cond":"ds","leftPic":"ds20b","rightPic":"ds20a","trialNum":2,"key":"h","correct":1,"rt":594},{"slide":"test","cond":"ap","leftPic":"ap32b","rightPic":"ap32a","trialNum":3,"key":"a","correct":1,"rt":1869},{"slide":"test","cond":"ds","leftPic":"ds19b","rightPic":"ds19a","trialNum":4,"key":"h","correct":1,"rt":654},{"slide":"test","cond":"ss","leftPic":"ss20b","rightPic":"ss20a","trialNum":5,"key":"h","correct":1,"rt":1090},{"slide":"test","cond":"ds","leftPic":"ds18b","rightPic":"ds18a","trialNum":6,"key":"h","correct":1,"rt":663},{"slide":"test","cond":"ap","leftPic":"ap31b","rightPic":"ap31a","trialNum":7,"key":"a","correct":1,"rt":1062},{"slide":"test","cond":"ap","leftPic":"ap30b","rightPic":"ap30a","trialNum":8,"key":"a","correct":1,"rt":1282},{"slide":"test","cond":"dd","leftPic":"dd19b","rightPic":"dd19a","trialNum":9,"key":"h","correct":1,"rt":742},{"slide":"test","cond":"ap","leftPic":"ap29b","rightPic":"ap29a","trialNum":10,"key":"a","correct":1,"rt":752},{"slide":"test","cond":"ap","leftPic":"ap28b","rightPic":"ap28a","trialNum":11,"key":"a","correct":1,"rt":1109},{"slide":"test","cond":"ss","leftPic":"ss19b","rightPic":"ss19a","trialNum":12,"key":"h","correct":1,"rt":792},{"slide":"test","cond":"ap","leftPic":"ap27b","rightPic":"ap27a","trialNum":13,"key":"a","correct":1,"rt":810},{"slide":"test","cond":"ap","leftPic":"ap26b","rightPic":"ap26a","trialNum":14,"key":"a","correct":1,"rt":845},{"slide":"test","cond":"ds","leftPic":"ds17b","rightPic":"ds17a","trialNum":15,"key":"h","correct":1,"rt":824},{"slide":"test","cond":"ap","leftPic":"ap25b","rightPic":"ap25a","trialNum":16,"key":"a","correct":1,"rt":866},{"slide":"test","cond":"ap","leftPic":"ap24b","rightPic":"ap24a","trialNum":17,"key":"a","correct":1,"rt":782},{"slide":"test","cond":"ss","leftPic":"ss18b","rightPic":"ss18a","trialNum":18,"key":"h","correct":1,"rt":621},{"slide":"test","cond":"dd","leftPic":"dd18b","rightPic":"dd18a","trialNum":19,"key":"h","correct":1,"rt":707},{"slide":"test","cond":"ss","leftPic":"ss17b","rightPic":"ss17a","trialNum":20,"key":"h","correct":1,"rt":577},{"slide":"test","cond":"ds","leftPic":"ds16b","rightPic":"ds16a","trialNum":21,"key":"h","correct":1,"rt":571},{"slide":"test","cond":"ss","leftPic":"ss16b","rightPic":"ss16a","trialNum":22,"key":"h","correct":1,"rt":580},{"slide":"test","cond":"dd","leftPic":"dd17b","rightPic":"dd17a","trialNum":23,"key":"h","correct":1,"rt":707},{"slide":"test","cond":"ss","leftPic":"ss15b","rightPic":"ss15a","trialNum":24,"key":"h","correct":1,"rt":642},{"slide":"test","cond":"ap","leftPic":"ap23b","rightPic":"ap23a","trialNum":25,"key":"a","correct":1,"rt":692},{"slide":"test","cond":"ss","leftPic":"ss14b","rightPic":"ss14a","trialNum":26,"key":"h","correct":1,"rt":825},{"slide":"test","cond":"ss","leftPic":"ss13b","rightPic":"ss13a","trialNum":27,"key":"h","correct":1,"rt":541},{"slide":"test","cond":"ds","leftPic":"ds15b","rightPic":"ds15a","trialNum":28,"key":"h","correct":1,"rt":496},{"slide":"test","cond":"dd","leftPic":"dd16b","rightPic":"dd16a","trialNum":29,"key":"h","correct":1,"rt":883},{"slide":"test","cond":"dd","leftPic":"dd15b","rightPic":"dd15a","trialNum":30,"key":"h","correct":1,"rt":591},{"slide":"test","cond":"ss","leftPic":"ss12b","rightPic":"ss12a","trialNum":31,"key":"h","correct":1,"rt":723},{"slide":"test","cond":"ap","leftPic":"ap22b","rightPic":"ap22a","trialNum":32,"key":"a","correct":1,"rt":676},{"slide":"test","cond":"ap","leftPic":"ap21b","rightPic":"ap21a","trialNum":33,"key":"a","correct":1,"rt":718},{"slide":"test","cond":"ss","leftPic":"ss11b","rightPic":"ss11a","trialNum":34,"key":"h","correct":1,"rt":655},{"slide":"test","cond":"ap","leftPic":"ap20b","rightPic":"ap20a","trialNum":35,"key":"a","correct":1,"rt":859},{"slide":"test","cond":"dd","leftPic":"dd14b","rightPic":"dd14a","trialNum":36,"key":"h","correct":1,"rt":718},{"slide":"test","cond":"ap","leftPic":"ap19b","rightPic":"ap19a","trialNum":37,"key":"a","correct":1,"rt":800},{"slide":"test","cond":"ds","leftPic":"ds14b","rightPic":"ds14a","trialNum":38,"key":"h","correct":1,"rt":696},{"slide":"test","cond":"ap","leftPic":"ap18b","rightPic":"ap18a","trialNum":39,"key":"a","correct":1,"rt":745},{"slide":"test","cond":"ap","leftPic":"ap17b","rightPic":"ap17a","trialNum":40,"key":"a","correct":1,"rt":773},{"slide":"test","cond":"ds","leftPic":"ds13b","rightPic":"ds13a","trialNum":41,"key":"h","correct":1,"rt":682},{"slide":"test","cond":"ap","leftPic":"ap16b","rightPic":"ap16a","trialNum":42,"key":"a","correct":1,"rt":846},{"slide":"test","cond":"ap","leftPic":"ap15b","rightPic":"ap15a","trialNum":43,"key":"a","correct":1,"rt":719},{"slide":"test","cond":"dd","leftPic":"dd13b","rightPic":"dd13a","trialNum":44,"key":"h","correct":1,"rt":503},{"slide":"test","cond":"ss","leftPic":"ss10b","rightPic":"ss10a","trialNum":45,"key":"h","correct":1,"rt":531},{"slide":"test","cond":"ap","leftPic":"ap14b","rightPic":"ap14a","trialNum":46,"key":"a","correct":1,"rt":689},{"slide":"test","cond":"ds","leftPic":"ds12b","rightPic":"ds12a","trialNum":47,"key":"h","correct":1,"rt":727},{"slide":"test","cond":"ap","leftPic":"ap13b","rightPic":"ap13a","trialNum":48,"key":"a","correct":1,"rt":789},{"slide":"test","cond":"ap","leftPic":"ap12b","rightPic":"ap12a","trialNum":49,"key":"a","correct":1,"rt":728},{"slide":"test","cond":"dd","leftPic":"dd12b","rightPic":"dd12a","trialNum":50,"key":"h","correct":1,"rt":735},{"slide":"test","cond":"ds","leftPic":"ds11b","rightPic":"ds11a","trialNum":51,"key":"h","correct":1,"rt":560},{"slide":"test","cond":"dd","leftPic":"dd11b","rightPic":"dd11a","trialNum":52,"key":"h","correct":1,"rt":588},{"slide":"test","cond":"ap","leftPic":"ap11b","rightPic":"ap11a","trialNum":53,"key":"a","correct":1,"rt":726},{"slide":"test","cond":"dd","leftPic":"dd10b","rightPic":"dd10a","trialNum":54,"key":"h","correct":1,"rt":675},{"slide":"test","cond":"dd","leftPic":"dd9b","rightPic":"dd9a","trialNum":55,"key":"h","correct":1,"rt":565},{"slide":"test","cond":"ds","leftPic":"ds10b","rightPic":"ds10a","trialNum":56,"key":"h","correct":1,"rt":544},{"slide":"test","cond":"ds","leftPic":"ds9b","rightPic":"ds9a","trialNum":57,"key":"h","correct":1,"rt":583},{"slide":"test","cond":"ss","leftPic":"ss9b","rightPic":"ss9a","trialNum":58,"key":"h","correct":1,"rt":532},{"slide":"test","cond":"ap","leftPic":"ap10b","rightPic":"ap10a","trialNum":59,"key":"a","correct":1,"rt":742},{"slide":"test","cond":"ss","leftPic":"ss8b","rightPic":"ss8a","trialNum":60,"key":"h","correct":1,"rt":647},{"slide":"test","cond":"ap","leftPic":"ap9b","rightPic":"ap9a","trialNum":61,"key":"a","correct":1,"rt":1090},{"slide":"test","cond":"dd","leftPic":"dd8b","rightPic":"dd8a","trialNum":62,"key":"h","correct":1,"rt":607},{"slide":"test","cond":"ds","leftPic":"ds8b","rightPic":"ds8a","trialNum":63,"key":"h","correct":1,"rt":654},{"slide":"test","cond":"dd","leftPic":"dd7b","rightPic":"dd7a","trialNum":64,"key":"h","correct":1,"rt":706},{"slide":"test","cond":"ap","leftPic":"ap8b","rightPic":"ap8a","trialNum":65,"key":"a","correct":1,"rt":761},{"slide":"test","cond":"ds","leftPic":"ds7b","rightPic":"ds7a","trialNum":66,"key":"h","correct":1,"rt":577},{"slide":"test","cond":"ss","leftPic":"ss7b","rightPic":"ss7a","trialNum":67,"key":"h","correct":1,"rt":599},{"slide":"test","cond":"ap","leftPic":"ap7b","rightPic":"ap7a","trialNum":68,"key":"a","correct":1,"rt":686},{"slide":"test","cond":"dd","leftPic":"dd6b","rightPic":"dd6a","trialNum":69,"key":"h","correct":1,"rt":922},{"slide":"test","cond":"ss","leftPic":"ss6b","rightPic":"ss6a","trialNum":70,"key":"h","correct":1,"rt":586},{"slide":"test","cond":"ap","leftPic":"ap6b","rightPic":"ap6a","trialNum":71,"key":"a","correct":1,"rt":709},{"slide":"test","cond":"ss","leftPic":"ss5b","rightPic":"ss5a","trialNum":72,"key":"h","correct":1,"rt":575},{"slide":"test","cond":"ds","leftPic":"ds6b","rightPic":"ds6a","trialNum":73,"key":"h","correct":1,"rt":609},{"slide":"test","cond":"dd","leftPic":"dd5b","rightPic":"dd5a","trialNum":74,"key":"h","correct":1,"rt":557},{"slide":"test","cond":"ds","leftPic":"ds5b","rightPic":"ds5a","trialNum":75,"key":"h","correct":1,"rt":539},{"slide":"test","cond":"ds","leftPic":"ds4b","rightPic":"ds4a","trialNum":76,"key":"h","correct":1,"rt":533},{"slide":"test","cond":"ap","leftPic":"ap5b","rightPic":"ap5a","trialNum":77,"key":"a","correct":1,"rt":688},{"slide":"test","cond":"ds","leftPic":"ds3b","rightPic":"ds3a","trialNum":78,"key":"h","correct":1,"rt":670},{"slide":"test","cond":"ap","leftPic":"ap4b","rightPic":"ap4a","trialNum":79,"key":"a","correct":1,"rt":708},{"slide":"test","cond":"ap","leftPic":"ap3b","rightPic":"ap3a","trialNum":80,"key":"a","correct":1,"rt":695},{"slide":"test","cond":"ap","leftPic":"ap2b","rightPic":"ap2a","trialNum":81,"key":"a","correct":1,"rt":835},{"slide":"test","cond":"ss","leftPic":"ss4b","rightPic":"ss4a","trialNum":82,"key":"h","correct":1,"rt":627},{"slide":"test","cond":"ss","leftPic":"ss3b","rightPic":"ss3a","trialNum":83,"key":"h","correct":1,"rt":555},{"slide":"test","cond":"ss","leftPic":"ss2b","rightPic":"ss2a","trialNum":84,"key":"h","correct":1,"rt":533},{"slide":"test","cond":"dd","leftPic":"dd4b","rightPic":"dd4a","trialNum":85,"key":"h","correct":1,"rt":577},{"slide":"test","cond":"dd","leftPic":"dd3b","rightPic":"dd3a","trialNum":86,"key":"h","correct":1,"rt":540},{"slide":"test","cond":"dd","leftPic":"dd2b","rightPic":"dd2a","trialNum":87,"key":"h","correct":1,"rt":538},{"slide":"test","cond":"ds","leftPic":"ds2b","rightPic":"ds2a","trialNum":88,"key":"h","correct":1,"rt":493},{"slide":"test","cond":"dd","leftPic":"dd1b","rightPic":"dd1a","trialNum":89,"key":"h","correct":1,"rt":485},{"slide":"test","cond":"ss","leftPic":"ss1b","rightPic":"ss1a","trialNum":90,"key":"h","correct":1,"rt":522},{"slide":"test","cond":"ap","leftPic":"ap1b","rightPic":"ap1a","trialNum":91,"key":"a","correct":1,"rt":555},{"slide":"test","cond":"ds","leftPic":"ds1b","rightPic":"ds1a","trialNum":92,"key":"h","correct":1,"rt":794}]