[{"slide":"test","cond":"dd","leftPic":"dd20b","rightPic":"dd20a","trialNum":1,"key":"h","correct":1,"rt":1105},{"slide":"test","cond":"ap","leftPic":"ap32b","rightPic":"ap32a","trialNum":2,"key":"a","correct":1,"rt":61},{"slide":"test","cond":"ap","leftPic":"ap31b","rightPic":"ap31a","trialNum":3,"key":"h","correct":0,"rt":19},{"slide":"test","cond":"ap","leftPic":"ap30b","rightPic":"ap30a","trialNum":4,"key":"h","correct":0,"rt":9},{"slide":"test","cond":"ds","leftPic":"ds20b","rightPic":"ds20a","trialNum":5,"key":"h","correct":1,"rt":2},{"slide":"test","cond":"ap","leftPic":"ap29b","rightPic":"ap29a","trialNum":6,"key":"h","correct":0,"rt":1},{"slide":"test","cond":"ss","leftPic":"ss20b","rightPic":"ss20a","trialNum":7,"key":"a","correct":0,"rt":99},{"slide":"test","cond":"ss","leftPic":"ss19b","rightPic":"ss19a","trialNum":8,"key":"h","correct":1,"rt":26},{"slide":"test","cond":"ss","leftPic":"ss18b","rightPic":"ss18a","trialNum":9,"key":"h","correct":1,"rt":21},{"slide":"test","cond":"ap","leftPic":"ap28b","rightPic":"ap28a","trialNum":10,"key":"h","correct":0,"rt":26},{"slide":"test","cond":"ss","leftPic":"ss17b","rightPic":"ss17a","trialNum":11,"key":"a","correct":0,"rt":2},{"slide":"test","cond":"dd","leftPic":"dd19b","rightPic":"dd19a","trialNum":12,"key":"h","correct":1,"rt":39},{"slide":"test","cond":"ds","leftPic":"ds19b","rightPic":"ds19a","trialNum":13,"key":"h","correct":1,"rt":55},{"slide":"test","cond":"dd","leftPic":"dd18b","rightPic":"dd18a","trialNum":14,"key":"h","correct":1,"rt":26},{"slide":"test","cond":"ds","leftPic":"ds18b","rightPic":"ds18a","trialNum":15,"key":"a","correct":0,"rt":21},{"slide":"test","cond":"ap","leftPic":"ap27b","rightPic":"ap27a","trialNum":16,"key":"h","correct":0,"rt":24},{"slide":"test","cond":"dd","leftPic":"dd17b","rightPic":"dd17a","trialNum":17,"key":"a","correct":0,"rt":27},{"slide":"test","cond":"ds","leftPic":"ds17b","rightPic":"ds17a","trialNum":18,"key":"h","correct":1,"rt":58},{"slide":"test","cond":"ap","leftPic":"ap26b","rightPic":"ap26a","trialNum":19,"key":"a","correct":1,"rt":67},{"slide":"test","cond":"ss","leftPic":"ss16b","rightPic":"ss16a","trialNum":20,"key":"a","correct":0,"rt":60},{"slide":"test","cond":"ap","leftPic":"ap25b","rightPic":"ap25a","trialNum":21,"key":"a","correct":1,"rt":83},{"slide":"test","cond":"ds","leftPic":"ds16b","rightPic":"ds16a","trialNum":22,"key":"a","correct":0,"rt":82},{"slide":"test","cond":"ap","leftPic":"ap24b","rightPic":"ap24a","trialNum":23,"key":"h","correct":0,"rt":43},{"slide":"test","cond":"dd","leftPic":"dd16b","rightPic":"dd16a","trialNum":24,"key":"a","correct":0,"rt":3},{"slide":"test","cond":"ap","leftPic":"ap23b","rightPic":"ap23a","trialNum":25,"key":"h","correct":0,"rt":11},{"slide":"test","cond":"ap","leftPic":"ap22b","rightPic":"ap22a","trialNum":26,"key":"a","correct":1,"rt":11},{"slide":"test","cond":"ss","leftPic":"ss15b","rightPic":"ss15a","trialNum":27,"key":"h","correct":1,"rt":140},{"slide":"test","cond":"ds","leftPic":"ds15b","rightPic":"ds15a","trialNum":28,"key":"a","correct":0,"rt":53},{"slide":"test","cond":"ap","leftPic":"ap21b","rightPic":"ap21a","trialNum":29,"key":"a","correct":1,"rt":32},{"slide":"test","cond":"dd","leftPic":"dd15b","rightPic":"dd15a","trialNum":30,"key":"h","correct":1,"rt":83},{"slide":"test","cond":"ap","leftPic":"ap20b","rightPic":"ap20a","trialNum":31,"key":"h","correct":0,"rt":53},{"slide":"test","cond":"dd","leftPic":"dd14b","rightPic":"dd14a","trialNum":32,"key":"a","correct":0,"rt":26},{"slide":"test","cond":"ap","leftPic":"ap19b","rightPic":"ap19a","trialNum":33,"key":"h","correct":0,"rt":27},{"slide":"test","cond":"dd","leftPic":"dd13b","rightPic":"dd13a","trialNum":34,"key":"a","correct":0,"rt":12},{"slide":"test","cond":"ds","leftPic":"ds14b","rightPic":"ds14a","trialNum":35,"key":"a","correct":0,"rt":138},{"slide":"test","cond":"dd","leftPic":"dd12b","rightPic":"dd12a","trialNum":36,"key":"a","correct":0,"rt":99},{"slide":"test","cond":"ds","leftPic":"ds13b","rightPic":"ds13a","trialNum":37,"key":"a","correct":0,"rt":43},{"slide":"test","cond":"ds","leftPic":"ds12b","rightPic":"ds12a","trialNum":38,"key":"a","correct":0,"rt":123},{"slide":"test","cond":"ss","leftPic":"ss14b","rightPic":"ss14a","trialNum":39,"key":"a","correct":0,"rt":475},{"slide":"test","cond":"ap","leftPic":"ap18b","rightPic":"ap18a","trialNum":40,"key":"h","correct":0,"rt":4},{"slide":"test","cond":"ds","leftPic":"ds11b","rightPic":"ds11a","trialNum":41,"key":"a","correct":0,"rt":53},{"slide":"test","cond":"ss","leftPic":"ss13b","rightPic":"ss13a","trialNum":42,"key":"a","correct":0,"rt":42},{"slide":"test","cond":"ap","leftPic":"ap17b","rightPic":"ap17a","trialNum":43,"key":"a","correct":1,"rt":28},{"slide":"test","cond":"ss","leftPic":"ss12b","rightPic":"ss12a","trialNum":44,"key":"a","correct":0,"rt":153},{"slide":"test","cond":"ap","leftPic":"ap16b","rightPic":"ap16a","trialNum":45,"key":"a","correct":1,"rt":48},{"slide":"test","cond":"ds","leftPic":"ds10b","rightPic":"ds10a","trialNum":46,"key":"h","correct":1,"rt":28},{"slide":"test","cond":"ds","leftPic":"ds9b","rightPic":"ds9a","trialNum":47,"key":"a","correct":0,"rt":54},{"slide":"test","cond":"dd","leftPic":"dd11b","rightPic":"dd11a","trialNum":48,"key":"a","correct":0,"rt":137},{"slide":"test","cond":"ap","leftPic":"ap15b","rightPic":"ap15a","trialNum":49,"key":"a","correct":1,"rt":131},{"slide":"test","cond":"dd","leftPic":"dd10b","rightPic":"dd10a","trialNum":50,"key":"a","correct":0,"rt":170},{"slide":"test","cond":"dd","leftPic":"dd9b","rightPic":"dd9a","trialNum":51,"key":"a","correct":0,"rt":74},{"slide":"test","cond":"ap","leftPic":"ap14b","rightPic":"ap14a","trialNum":52,"key":"a","correct":1,"rt":163},{"slide":"test","cond":"ap","leftPic":"ap13b","rightPic":"ap13a","trialNum":53,"key":"h","correct":0,"rt":40},{"slide":"test","cond":"ss","leftPic":"ss11b","rightPic":"ss11a","trialNum":54,"key":"a","correct":0,"rt":111},{"slide":"test","cond":"ds","leftPic":"ds8b","rightPic":"ds8a","trialNum":55,"key":"a","correct":0,"rt":235},{"slide":"test","cond":"ss","leftPic":"ss10b","rightPic":"ss10a","trialNum":56,"key":"a","correct":0,"rt":170},{"slide":"test","cond":"ap","leftPic":"ap12b","rightPic":"ap12a","trialNum":57,"key":"a","correct":1,"rt":165},{"slide":"test","cond":"ds","leftPic":"ds7b","rightPic":"ds7a","trialNum":58,"key":"a","correct":0,"rt":91},{"slide":"test","cond":"ss","leftPic":"ss9b","rightPic":"ss9a","trialNum":59,"key":"a","correct":0,"rt":131},{"slide":"test","cond":"ss","leftPic":"ss8b","rightPic":"ss8a","trialNum":60,"key":"h","correct":1,"rt":21},{"slide":"test","cond":"dd","leftPic":"dd8b","rightPic":"dd8a","trialNum":61,"key":"a","correct":0,"rt":128},{"slide":"test","cond":"ss","leftPic":"ss7b","rightPic":"ss7a","trialNum":62,"key":"a","correct":0,"rt":235},{"slide":"test","cond":"ds","leftPic":"ds6b","rightPic":"ds6a","trialNum":63,"key":"a","correct":0,"rt":29},{"slide":"test","cond":"ap","leftPic":"ap11b","rightPic":"ap11a","trialNum":64,"key":"h","correct":0,"rt":171},{"slide":"test","cond":"ds","leftPic":"ds5b","rightPic":"ds5a","trialNum":65,"key":"a","correct":0,"rt":28},{"slide":"test","cond":"ap","leftPic":"ap10b","rightPic":"ap10a","trialNum":66,"key":"a","correct":1,"rt":114},{"slide":"test","cond":"dd","leftPic":"dd7b","rightPic":"dd7a","trialNum":67,"key":"a","correct":0,"rt":115},{"slide":"test","cond":"ds","leftPic":"ds4b","rightPic":"ds4a","trialNum":68,"key":"a","correct":0,"rt":19},{"slide":"test","cond":"ap","leftPic":"ap9b","rightPic":"ap9a","trialNum":69,"key":"h","correct":0,"rt":50},{"slide":"test","cond":"dd","leftPic":"dd6b","rightPic":"dd6a","trialNum":70,"key":"a","correct":0,"rt":39},{"slide":"test","cond":"ap","leftPic":"ap8b","rightPic":"ap8a","trialNum":71,"key":"a","correct":1,"rt":9},{"slide":"test","cond":"dd","leftPic":"dd5b","rightPic":"dd5a","trialNum":72,"key":"a","correct":0,"rt":195},{"slide":"test","cond":"ds","leftPic":"ds3b","rightPic":"ds3a","trialNum":73,"key":"a","correct":0,"rt":411},{"slide":"test","cond":"dd","leftPic":"dd4b","rightPic":"dd4a","trialNum":74,"key":"a","correct":0,"rt":21},{"slide":"test","cond":"ds","leftPic":"ds2b","rightPic":"ds2a","trialNum":75,"key":"a","correct":0,"rt":72},{"slide":"test","cond":"dd","leftPic":"dd3b","rightPic":"dd3a","trialNum":76,"key":"a","correct":0,"rt":59},{"slide":"test","cond":"ap","leftPic":"ap7b","rightPic":"ap7a","trialNum":77,"key":"a","correct":1,"rt":107},{"slide":"test","cond":"ap","leftPic":"ap6b","rightPic":"ap6a","trialNum":78,"key":"a","correct":1,"rt":67},{"slide":"test","cond":"ss","leftPic":"ss6b","rightPic":"ss6a","trialNum":79,"key":"a","correct":0,"rt":101},{"slide":"test","cond":"dd","leftPic":"dd2b","rightPic":"dd2a","trialNum":80,"key":"a","correct":0,"rt":155},{"slide":"test","cond":"ss","leftPic":"ss5b","rightPic":"ss5a","trialNum":81,"key":"a","correct":0,"rt":58},{"slide":"test","cond":"ap","leftPic":"ap5b","rightPic":"ap5a","trialNum":82,"key":"a","correct":1,"rt":58},{"slide":"test","cond":"ss","leftPic":"ss4b","rightPic":"ss4a","trialNum":83,"key":"a","correct":0,"rt":205},{"slide":"test","cond":"ss","leftPic":"ss3b","rightPic":"ss3a","trialNum":84,"key":"h","correct":1,"rt":27},{"slide":"test","cond":"ap","leftPic":"ap4b","rightPic":"ap4a","trialNum":85,"key":"a","correct":1,"rt":201},{"slide":"test","cond":"ds","leftPic":"ds1b","rightPic":"ds1a","trialNum":86,"key":"a","correct":0,"rt":163},{"slide":"test","cond":"ss","leftPic":"ss2b","rightPic":"ss2a","trialNum":87,"key":"a","correct":0,"rt":129},{"slide":"test","cond":"ap","leftPic":"ap3b","rightPic":"ap3a","trialNum":88,"key":"a","correct":1,"rt":21},{"slide":"test","cond":"dd","leftPic":"dd1b","rightPic":"dd1a","trialNum":89,"key":"a","correct":0,"rt":100},{"slide":"test","cond":"ap","leftPic":"ap2b","rightPic":"ap2a","trialNum":90,"key":"a","correct":1,"rt":106},{"slide":"test","cond":"ap","leftPic":"ap1b","rightPic":"ap1a","trialNum":91,"key":"a","correct":1,"rt":10},{"slide":"test","cond":"ss","leftPic":"ss1b","rightPic":"ss1a","trialNum":92,"key":"a","correct":0,"rt":188}]