[{"slide":"test","cond":"ds","leftPic":"ds20b","rightPic":"ds20a","trialNum":1,"key":"h","correct":1,"rt":1685},{"slide":"test","cond":"ss","leftPic":"ss20b","rightPic":"ss20a","trialNum":2,"key":"h","correct":1,"rt":1146},{"slide":"test","cond":"dd","leftPic":"dd20b","rightPic":"dd20a","trialNum":3,"key":"h","correct":1,"rt":1117},{"slide":"test","cond":"ap","leftPic":"ap32b","rightPic":"ap32a","trialNum":4,"key":"a","correct":1,"rt":1066},{"slide":"test","cond":"ap","leftPic":"ap31b","rightPic":"ap31a","trialNum":5,"key":"a","correct":1,"rt":1037},{"slide":"test","cond":"ap","leftPic":"ap30b","rightPic":"ap30a","trialNum":6,"key":"a","correct":1,"rt":1149},{"slide":"test","cond":"ap","leftPic":"ap29b","rightPic":"ap29a","trialNum":7,"key":"a","correct":1,"rt":1138},{"slide":"test","cond":"ss","leftPic":"ss19b","rightPic":"ss19a","trialNum":8,"key":"h","correct":1,"rt":1034},{"slide":"test","cond":"ds","leftPic":"ds19b","rightPic":"ds19a","trialNum":9,"key":"h","correct":1,"rt":947},{"slide":"test","cond":"ap","leftPic":"ap28b","rightPic":"ap28a","trialNum":10,"key":"a","correct":1,"rt":905},{"slide":"test","cond":"ss","leftPic":"ss18b","rightPic":"ss18a","trialNum":11,"key":"h","correct":1,"rt":1164},{"slide":"test","cond":"ss","leftPic":"ss17b","rightPic":"ss17a","trialNum":12,"key":"h","correct":1,"rt":1593},{"slide":"test","cond":"ap","leftPic":"ap27b","rightPic":"ap27a","trialNum":13,"key":"a","correct":1,"rt":1098},{"slide":"test","cond":"ap","leftPic":"ap26b","rightPic":"ap26a","trialNum":14,"key":"a","correct":1,"rt":955},{"slide":"test","cond":"ap","leftPic":"ap25b","rightPic":"ap25a","trialNum":15,"key":"a","correct":1,"rt":1124},{"slide":"test","cond":"dd","leftPic":"dd19b","rightPic":"dd19a","trialNum":16,"key":"h","correct":1,"rt":1148},{"slide":"test","cond":"ds","leftPic":"ds18b","rightPic":"ds18a","trialNum":17,"key":"h","correct":1,"rt":1088},{"slide":"test","cond":"dd","leftPic":"dd18b","rightPic":"dd18a","trialNum":18,"key":"h","correct":1,"rt":1070},{"slide":"test","cond":"ap","leftPic":"ap24b","rightPic":"ap24a","trialNum":19,"key":"a","correct":1,"rt":1060},{"slide":"test","cond":"ss","leftPic":"ss16b","rightPic":"ss16a","trialNum":20,"key":"h","correct":1,"rt":1501},{"slide":"test","cond":"dd","leftPic":"dd17b","rightPic":"dd17a","trialNum":21,"key":"h","correct":1,"rt":1177},{"slide":"test","cond":"ap","leftPic":"ap23b","rightPic":"ap23a","trialNum":22,"key":"a","correct":1,"rt":1306},{"slide":"test","cond":"dd","leftPic":"dd16b","rightPic":"dd16a","trialNum":23,"key":"h","correct":1,"rt":2046},{"slide":"test","cond":"ap","leftPic":"ap22b","rightPic":"ap22a","trialNum":24,"key":"a","correct":1,"rt":1036},{"slide":"test","cond":"ds","leftPic":"ds17b","rightPic":"ds17a","trialNum":25,"key":"h","correct":1,"rt":1307},{"slide":"test","cond":"ds","leftPic":"ds16b","rightPic":"ds16a","trialNum":26,"key":"h","correct":1,"rt":1116},{"slide":"test","cond":"ss","leftPic":"ss15b","rightPic":"ss15a","trialNum":27,"key":"h","correct":1,"rt":1382},{"slide":"test","cond":"ds","leftPic":"ds15b","rightPic":"ds15a","trialNum":28,"key":"h","correct":1,"rt":1434},{"slide":"test","cond":"ss","leftPic":"ss14b","rightPic":"ss14a","trialNum":29,"key":"h","correct":1,"rt":1269},{"slide":"test","cond":"ds","leftPic":"ds14b","rightPic":"ds14a","trialNum":30,"key":"h","correct":1,"rt":1349},{"slide":"test","cond":"dd","leftPic":"dd15b","rightPic":"dd15a","trialNum":31,"key":"h","correct":1,"rt":1060},{"slide":"test","cond":"dd","leftPic":"dd14b","rightPic":"dd14a","trialNum":32,"key":"h","correct":1,"rt":1196},{"slide":"test","cond":"ap","leftPic":"ap21b","rightPic":"ap21a","trialNum":33,"key":"a","correct":1,"rt":1082},{"slide":"test","cond":"dd","leftPic":"dd13b","rightPic":"dd13a","trialNum":34,"key":"h","correct":1,"rt":1178},{"slide":"test","cond":"dd","leftPic":"dd12b","rightPic":"dd12a","trialNum":35,"key":"h","correct":1,"rt":1099},{"slide":"test","cond":"ap","leftPic":"ap20b","rightPic":"ap20a","trialNum":36,"key":"a","correct":1,"rt":1188},{"slide":"test","cond":"ap","leftPic":"ap19b","rightPic":"ap19a","trialNum":37,"key":"a","correct":1,"rt":1011},{"slide":"test","cond":"ap","leftPic":"ap18b","rightPic":"ap18a","trialNum":38,"key":"a","correct":1,"rt":1134},{"slide":"test","cond":"dd","leftPic":"dd11b","rightPic":"dd11a","trialNum":39,"key":"h","correct":1,"rt":977},{"slide":"test","cond":"ss","leftPic":"ss13b","rightPic":"ss13a","trialNum":40,"key":"h","correct":1,"rt":1194},{"slide":"test","cond":"ap","leftPic":"ap17b","rightPic":"ap17a","trialNum":41,"key":"a","correct":1,"rt":1065},{"slide":"test","cond":"ap","leftPic":"ap16b","rightPic":"ap16a","trialNum":42,"key":"a","correct":1,"rt":1274},{"slide":"test","cond":"ss","leftPic":"ss12b","rightPic":"ss12a","trialNum":43,"key":"h","correct":1,"rt":978},{"slide":"test","cond":"ss","leftPic":"ss11b","rightPic":"ss11a","trialNum":44,"key":"h","correct":1,"rt":1018},{"slide":"test","cond":"ap","leftPic":"ap15b","rightPic":"ap15a","trialNum":45,"key":"a","correct":1,"rt":933},{"slide":"test","cond":"ss","leftPic":"ss10b","rightPic":"ss10a","trialNum":46,"key":"h","correct":1,"rt":946},{"slide":"test","cond":"ds","leftPic":"ds13b","rightPic":"ds13a","trialNum":47,"key":"h","correct":1,"rt":1052},{"slide":"test","cond":"ap","leftPic":"ap14b","rightPic":"ap14a","trialNum":48,"key":"a","correct":1,"rt":957},{"slide":"test","cond":"dd","leftPic":"dd10b","rightPic":"dd10a","trialNum":49,"key":"h","correct":1,"rt":1168},{"slide":"test","cond":"dd","leftPic":"dd9b","rightPic":"dd9a","trialNum":50,"key":"h","correct":1,"rt":1045},{"slide":"test","cond":"ds","leftPic":"ds12b","rightPic":"ds12a","trialNum":51,"key":"h","correct":1,"rt":987},{"slide":"test","cond":"dd","leftPic":"dd8b","rightPic":"dd8a","trialNum":52,"key":"h","correct":1,"rt":891},{"slide":"test","cond":"ss","leftPic":"ss9b","rightPic":"ss9a","trialNum":53,"key":"h","correct":1,"rt":1109},{"slide":"test","cond":"dd","leftPic":"dd7b","rightPic":"dd7a","trialNum":54,"key":"h","correct":1,"rt":957},{"slide":"test","cond":"ds","leftPic":"ds11b","rightPic":"ds11a","trialNum":55,"key":"h","correct":1,"rt":1195},{"slide":"test","cond":"ds","leftPic":"ds10b","rightPic":"ds10a","trialNum":56,"key":"h","correct":1,"rt":1194},{"slide":"test","cond":"ap","leftPic":"ap13b","rightPic":"ap13a","trialNum":57,"key":"a","correct":1,"rt":957},{"slide":"test","cond":"ss","leftPic":"ss8b","rightPic":"ss8a","trialNum":58,"key":"h","correct":1,"rt":1399},{"slide":"test","cond":"ss","leftPic":"ss7b","rightPic":"ss7a","trialNum":59,"key":"h","correct":1,"rt":846},{"slide":"test","cond":"ds","leftPic":"ds9b","rightPic":"ds9a","trialNum":60,"key":"h","correct":1,"rt":1132},{"slide":"test","cond":"ds","leftPic":"ds8b","rightPic":"ds8a","trialNum":61,"key":"h","correct":1,"rt":1052},{"slide":"test","cond":"ap","leftPic":"ap12b","rightPic":"ap12a","trialNum":62,"key":"a","correct":1,"rt":778},{"slide":"test","cond":"ss","leftPic":"ss6b","rightPic":"ss6a","trialNum":63,"key":"h","correct":1,"rt":1203},{"slide":"test","cond":"ds","leftPic":"ds7b","rightPic":"ds7a","trialNum":64,"key":"h","correct":1,"rt":907},{"slide":"test","cond":"ap","leftPic":"ap11b","rightPic":"ap11a","trialNum":65,"key":"a","correct":1,"rt":883},{"slide":"test","cond":"ap","leftPic":"ap10b","rightPic":"ap10a","trialNum":66,"key":"a","correct":1,"rt":931},{"slide":"test","cond":"ap","leftPic":"ap9b","rightPic":"ap9a","trialNum":67,"key":"a","correct":1,"rt":837},{"slide":"test","cond":"ds","leftPic":"ds6b","rightPic":"ds6a","trialNum":68,"key":"h","correct":1,"rt":866},{"slide":"test","cond":"ap","leftPic":"ap8b","rightPic":"ap8a","trialNum":69,"key":"a","correct":1,"rt":867},{"slide":"test","cond":"ds","leftPic":"ds5b","rightPic":"ds5a","trialNum":70,"key":"h","correct":1,"rt":899},{"slide":"test","cond":"ap","leftPic":"ap7b","rightPic":"ap7a","trialNum":71,"key":"a","correct":1,"rt":924},{"slide":"test","cond":"dd","leftPic":"dd6b","rightPic":"dd6a","trialNum":72,"key":"h","correct":1,"rt":949},{"slide":"test","cond":"ss","leftPic":"ss5b","rightPic":"ss5a","trialNum":73,"key":"h","correct":1,"rt":1324},{"slide":"test","cond":"dd","leftPic":"dd5b","rightPic":"dd5a","trialNum":74,"key":"h","correct":1,"rt":902},{"slide":"test","cond":"ds","leftPic":"ds4b","rightPic":"ds4a","trialNum":75,"key":"h","correct":1,"rt":1059},{"slide":"test","cond":"ap","leftPic":"ap6b","rightPic":"ap6a","trialNum":76,"key":"a","correct":1,"rt":874},{"slide":"test","cond":"ap","leftPic":"ap5b","rightPic":"ap5a","trialNum":77,"key":"a","correct":1,"rt":852},{"slide":"test","cond":"ss","leftPic":"ss4b","rightPic":"ss4a","trialNum":78,"key":"h","correct":1,"rt":1110},{"slide":"test","cond":"ap","leftPic":"ap4b","rightPic":"ap4a","trialNum":79,"key":"a","correct":1,"rt":936},{"slide":"test","cond":"ap","leftPic":"ap3b","rightPic":"ap3a","trialNum":80,"key":"a","correct":1,"rt":836},{"slide":"test","cond":"ds","leftPic":"ds3b","rightPic":"ds3a","trialNum":81,"key":"h","correct":1,"rt":1061},{"slide":"test","cond":"dd","leftPic":"dd4b","rightPic":"dd4a","trialNum":82,"key":"h","correct":1,"rt":1010},{"slide":"test","cond":"ap","leftPic":"ap2b","rightPic":"ap2a","trialNum":83,"key":"a","correct":1,"rt":832},{"slide":"test","cond":"dd","leftPic":"dd3b","rightPic":"dd3a","trialNum":84,"key":"h","correct":1,"rt":928},{"slide":"test","cond":"ds","leftPic":"ds2b","rightPic":"ds2a","trialNum":85,"key":"h","correct":1,"rt":931},{"slide":"test","cond":"ss","leftPic":"ss3b","rightPic":"ss3a","trialNum":86,"key":"h","correct":1,"rt":1070},{"slide":"test","cond":"dd","leftPic":"dd2b","rightPic":"dd2a","trialNum":87,"key":"h","correct":1,"rt":963},{"slide":"test","cond":"ss","leftPic":"ss2b","rightPic":"ss2a","trialNum":88,"key":"h","correct":1,"rt":1087},{"slide":"test","cond":"ap","leftPic":"ap1b","rightPic":"ap1a","trialNum":89,"key":"a","correct":1,"rt":808},{"slide":"test","cond":"ss","leftPic":"ss1b","rightPic":"ss1a","trialNum":90,"key":"h","correct":1,"rt":983},{"slide":"test","cond":"dd","leftPic":"dd1b","rightPic":"dd1a","trialNum":91,"key":"h","correct":1,"rt":1011},{"slide":"test","cond":"ds","leftPic":"ds1b","rightPic":"ds1a","trialNum":92,"key":"h","correct":1,"rt":1124}]